3,5,1000,1,, 1371945600.0
Time_ms,Pos_X,Pos_Y,Pos_Z,Vel_X,Vel_Y,Vel_Z,Acc_X,Acc_Y,Acc_Z,Jerk_X,Jerk_Y,Jerk_Z,Lat,Long,Height,Heading,Elevation,Bank,Ang-vel_X,Ang-vel_Y,Ang-vel_Z,Ang-acc_X,Ang-acc_Y,Ang-acc_Z,Ant1_Pos_X,Ant1_Pos_Y,Ant1_Pos_Z,Ant1_Vel_X,Ant1_Vel_Y,Ant1_Vel_Z,Ant1_Acc_X,Ant1_Acc_Y,Ant1_Acc_Z,Ant1_Lat,Ant1_Long,Ant1_Height,Ant1_DOP
0,4402957.8071,666835.8982,4550862.1942,0.0000,0.0000,0.0000,0.000,0.000,0.000,0.000,0.000,0.000,0.79960514351,0.15030950051,0.0000,0.000000000,0.000000000,0.000000000,0.00000000000,0.00000000000,0.00000000000,0.00000000000,0.00000000000,0.00000000000,4402957.8071,666835.8982,4550862.1942,0.0000,0.0000,0.0000,0.000,0.000,0.000,0.79960514351,0.15030950051,0.0000,2.141
1000,4402957.8071,666835.8982,4550862.1942,0.0000,0.0000,0.0000,0.000,0.000,0.000,0.000,0.000,0.000,0.79960514351,0.15030950051,0.0000,0.000000000,0.000000000,0.000000000,0.00000000000,0.00000000000,0.00000000000,0.00000000000,0.00000000000,0.00000000000,4402957.8071,666835.8982,4550862.1942,0.0000,0.0000,0.0000,0.000,0.000,0.000,0.79960514351,0.15030950051,0.0000,2.141
2000,4402957.8071,666835.8982,4550862.1942,0.0000,0.0000,0.0000,0.000,0.000,0.000,0.000,0.000,0.000,0.79960514351,0.15030950051,0.0000,0.000000000,0.000000000,0.000000000,0.00000000000,0.00000000000,0.00000000000,0.00000000000,0.00000000000,0.00000000000,4402957.8071,666835.8982,4550862.1942,0.0000,0.0000,0.0000,0.000,0.000,0.000,0.79960514351,0.15030950051,0.0000,2.141
3000,4402957.8071,666835.8982,4550862.1942,0.0000,0.0000,0.0000,0.000,0.000,0.000,0.000,0.000,0.000,0.79960514351,0.15030950051,0.0000,0.000000000,0.000000000,0.000000000,0.00000000000,0.00000000000,0.00000000000,0.00000000000,0.00000000000,0.00000000000,4402957.8071,666835.8982,4550862.1942,0.0000,0.0000,0.0000,0.000,0.000,0.000,0.79960514351,0.15030950051,0.0000,2.141
4000,4402957.8071,666835.8982,4550862.1942,0.0000,0.0000,0.0000,0.000,0.000,0.000,0.000,0.000,0.000,0.79960514351,0.15030950051,0.0000,0.000000000,0.000000000,0.000000000,0.00000000000,0.00000000000,0.00000000000,0.00000000000,0.00000000000,0.00000000000,4402957.8071,666835.8982,4550862.1942,0.0000,0.0000,0.0000,0.000,0.000,0.000,0.79960514351,0.15030950051,0.0000,2.141
5000,4402957.8071,666835.8982,4550862.1942,0.0000,0.0000,0.0000,0.000,0.000,0.000,0.000,0.000,0.000,0.79960514351,0.15030950051,0.0000,0.000000000,0.000000000,0.000000000,0.00000000000,0.00000000000,0.00000000000,0.00000000000,0.00000000000,0.00000000000,4402957.8071,666835.8982,4550862.1942,0.0000,0.0000,0.0000,0.000,0.000,0.000,0.79960514351,0.15030950051,0.0000,2.141
6000,4402957.8071,666835.8982,4550862.1942,0.0000,0.0000,0.0000,0.000,0.000,0.000,0.000,0.000,0.000,0.79960514351,0.15030950051,0.0000,0.000000000,0.000000000,0.000000000,0.00000000000,0.00000000000,0.00000000000,0.00000000000,0.00000000000,0.00000000000,4402957.8071,666835.8982,4550862.1942,0.0000,0.0000,0.0000,0.000,0.000,0.000,0.79960514351,0.15030950051,0.0000,2.145
7000,4402957.8071,666835.8982,4550862.1942,0.0000,0.0000,0.0000,0.000,0.000,0.000,0.000,0.000,0.000,0.79960514351,0.15030950051,0.0000,0.000000000,0.000000000,0.000000000,0.00000000000,0.00000000000,0.00000000000,0.00000000000,0.00000000000,0.00000000000,4402957.8071,666835.8982,4550862.1942,0.0000,0.0000,0.0000,0.000,0.000,0.000,0.79960514351,0.15030950051,0.0000,2.145
8000,4402957.8071,666835.8982,4550862.1942,0.0000,0.0000,0.0000,0.000,0.000,0.000,0.000,0.000,0.000,0.79960514351,0.15030950051,0.0000,0.000000000,0.000000000,0.000000000,0.00000000000,0.00000000000,0.00000000000,0.00000000000,0.00000000000,0.00000000000,4402957.8071,666835.8982,4550862.1942,0.0000,0.0000,0.0000,0.000,0.000,0.000,0.79960514351,0.15030950051,0.0000,2.145
9000,4402957.8071,666835.8982,4550862.1942,0.0000,0.0000,0.0000,0.000,0.000,0.000,0.000,0.000,0.000,0.79960514351,0.15030950051,0.0000,0.000000000,0.000000000,0.000000000,0.00000000000,0.00000000000,0.00000000000,0.00000000000,0.00000000000,0.00000000000,4402957.8071,666835.8982,4550862.1942,0.0000,0.0000,0.0000,0.000,0.000,0.000,0.79960514351,0.15030950051,0.0000,2.145
10000,4402957.8071,666835.8982,4550862.1942,0.0000,0.0000,0.0000,0.000,0.000,0.000,0.000,0.000,0.000,0.79960514351,0.15030950051,0.0000,0.000000000,0.000000000,0.000000000,0.00000000000,0.00000000000,0.00000000000,0.00000000000,0.00000000000,0.00000000000,4402957.8071,666835.8982,4550862.1942,0.0000,0.0000,0.0000,0.000,0.000,0.000,0.79960514351,0.15030950051,0.0000,2.145
11000,4402957.8071,666835.8982,4550862.1942,0.0000,0.0000,0.0000,0.000,0.000,0.000,0.000,0.000,0.000,0.79960514351,0.15030950051,0.0000,0.000000000,0.000000000,0.000000000,0.00000000000,0.00000000000,0.00000000000,0.00000000000,0.00000000000,0.00000000000,4402957.8071,666835.8982,4550862.1942,0.0000,0.0000,0.0000,0.000,0.000,0.000,0.79960514351,0.15030950051,0.0000,2.145
12000,4402957.8071,666835.8982,4550862.1942,0.0000,0.0000,0.0000,0.000,0.000,0.000,0.000,0.000,0.000,0.79960514351,0.15030950051,0.0000,0.000000000,0.000000000,0.000000000,0.00000000000,0.00000000000,0.00000000000,0.00000000000,0.00000000000,0.00000000000,4402957.8071,666835.8982,4550862.1942,0.0000,0.0000,0.0000,0.000,0.000,0.000,0.79960514351,0.15030950051,0.0000,2.150
13000,4402957.8071,666835.8982,4550862.1942,0.0000,0.0000,0.0000,0.000,0.000,0.000,0.000,0.000,0.000,0.79960514351,0.15030950051,0.0000,0.000000000,0.000000000,0.000000000,0.00000000000,0.00000000000,0.00000000000,0.00000000000,0.00000000000,0.00000000000,4402957.8071,666835.8982,4550862.1942,0.0000,0.0000,0.0000,0.000,0.000,0.000,0.79960514351,0.15030950051,0.0000,2.150
14000,4402957.8071,666835.8982,4550862.1942,0.0000,0.0000,0.0000,0.000,0.000,0.000,0.000,0.000,0.000,0.79960514351,0.15030950051,0.0000,0.000000000,0.000000000,0.000000000,0.00000000000,0.00000000000,0.00000000000,0.00000000000,0.00000000000,0.00000000000,4402957.8071,666835.8982,4550862.1942,0.0000,0.0000,0.0000,0.000,0.000,0.000,0.79960514351,0.15030950051,0.0000,2.150
15000,4402957.8071,666835.8982,4550862.1942,0.0000,0.0000,0.0000,0.000,0.000,0.000,0.000,0.000,0.000,0.79960514351,0.15030950051,0.0000,0.000000000,0.000000000,0.000000000,0.00000000000,0.00000000000,0.00000000000,0.00000000000,0.00000000000,0.00000000000,4402957.8071,666835.8982,4550862.1942,0.0000,0.0000,0.0000,0.000,0.000,0.000,0.79960514351,0.15030950051,0.0000,2.150
16000,4402957.8071,666835.8982,4550862.1942,0.0000,0.0000,0.0000,0.000,0.000,0.000,0.000,0.000,0.000,0.79960514351,0.15030950051,0.0000,0.000000000,0.000000000,0.000000000,0.00000000000,0.00000000000,0.00000000000,0.00000000000,0.00000000000,0.00000000000,4402957.8071,666835.8982,4550862.1942,0.0000,0.0000,0.0000,0.000,0.000,0.000,0.79960514351,0.15030950051,0.0000,2.150
17000,4402957.8071,666835.8982,4550862.1942,0.0000,0.0000,0.0000,0.000,0.000,0.000,0.000,0.000,0.000,0.79960514351,0.15030950051,0.0000,0.000000000,0.000000000,0.000000000,0.00000000000,0.00000000000,0.00000000000,0.00000000000,0.00000000000,0.00000000000,4402957.8071,666835.8982,4550862.1942,0.0000,0.0000,0.0000,0.000,0.000,0.000,0.79960514351,0.15030950051,0.0000,2.150
18000,4402957.8071,666835.8982,4550862.1942,0.0000,0.0000,0.0000,0.000,0.000,0.000,0.000,0.000,0.000,0.79960514351,0.15030950051,0.0000,0.000000000,0.000000000,0.000000000,0.00000000000,0.00000000000,0.00000000000,0.00000000000,0.00000000000,0.00000000000,4402957.8071,666835.8982,4550862.1942,0.0000,0.0000,0.0000,0.000,0.000,0.000,0.79960514351,0.15030950051,0.0000,2.154
19000,4402957.8071,666835.8982,4550862.1942,0.0000,0.0000,0.0000,0.000,0.000,0.000,0.000,0.000,0.000,0.79960514351,0.15030950051,0.0000,0.000000000,0.000000000,0.000000000,0.00000000000,0.00000000000,0.00000000000,0.00000000000,0.00000000000,0.00000000000,4402957.8071,666835.8982,4550862.1942,0.0000,0.0000,0.0000,0.000,0.000,0.000,0.79960514351,0.15030950051,0.0000,2.154
20000,4402957.8071,666835.8982,4550862.1942,0.0000,0.0000,0.0000,0.000,0.000,0.000,0.000,0.000,0.000,0.79960514351,0.15030950051,0.0000,0.000000000,0.000000000,0.000000000,0.00000000000,0.00000000000,0.00000000000,0.00000000000,0.00000000000,0.00000000000,4402957.8071,666835.8982,4550862.1942,0.0000,0.0000,0.0000,0.000,0.000,0.000,0.79960514351,0.15030950051,0.0000,2.154
21000,4402957.8071,666835.8982,4550862.1942,0.0000,0.0000,0.0000,0.000,0.000,0.000,0.000,0.000,0.000,0.79960514351,0.15030950051,0.0000,0.000000000,0.000000000,0.000000000,0.00000000000,0.00000000000,0.00000000000,0.00000000000,0.00000000000,0.00000000000,4402957.8071,666835.8982,4550862.1942,0.0000,0.0000,0.0000,0.000,0.000,0.000,0.79960514351,0.15030950051,0.0000,2.154
22000,4402957.8071,666835.8982,4550862.1942,0.0000,0.0000,0.0000,0.000,0.000,0.000,0.000,0.000,0.000,0.79960514351,0.15030950051,0.0000,0.000000000,0.000000000,0.000000000,0.00000000000,0.00000000000,0.00000000000,0.00000000000,0.00000000000,0.00000000000,4402957.8071,666835.8982,4550862.1942,0.0000,0.0000,0.0000,0.000,0.000,0.000,0.79960514351,0.15030950051,0.0000,2.154
23000,4402957.8071,666835.8982,4550862.1942,0.0000,0.0000,0.0000,0.000,0.000,0.000,0.000,0.000,0.000,0.79960514351,0.15030950051,0.0000,0.000000000,0.000000000,0.000000000,0.00000000000,0.00000000000,0.00000000000,0.00000000000,0.00000000000,0.00000000000,4402957.8071,666835.8982,4550862.1942,0.0000,0.0000,0.0000,0.000,0.000,0.000,0.79960514351,0.15030950051,0.0000,2.154
24000,4402957.8071,666835.8982,4550862.1942,0.0000,0.0000,0.0000,0.000,0.000,0.000,0.000,0.000,0.000,0.79960514351,0.15030950051,0.0000,0.000000000,0.000000000,0.000000000,0.00000000000,0.00000000000,0.00000000000,0.00000000000,0.00000000000,0.00000000000,4402957.8071,666835.8982,4550862.1942,0.0000,0.0000,0.0000,0.000,0.000,0.000,0.79960514351,0.15030950051,0.0000,2.159
25000,4402957.8071,666835.8982,4550862.1942,0.0000,0.0000,0.0000,0.000,0.000,0.000,0.000,0.000,0.000,0.79960514351,0.15030950051,0.0000,0.000000000,0.000000000,0.000000000,0.00000000000,0.00000000000,0.00000000000,0.00000000000,0.00000000000,0.00000000000,4402957.8071,666835.8982,4550862.1942,0.0000,0.0000,0.0000,0.000,0.000,0.000,0.79960514351,0.15030950051,0.0000,2.159
26000,4402957.8071,666835.8982,4550862.1942,0.0000,0.0000,0.0000,0.000,0.000,0.000,0.000,0.000,0.000,0.79960514351,0.15030950051,0.0000,0.000000000,0.000000000,0.000000000,0.00000000000,0.00000000000,0.00000000000,0.00000000000,0.00000000000,0.00000000000,4402957.8071,666835.8982,4550862.1942,0.0000,0.0000,0.0000,0.000,0.000,0.000,0.79960514351,0.15030950051,0.0000,2.159
27000,4402957.8071,666835.8982,4550862.1942,0.0000,0.0000,0.0000,0.000,0.000,0.000,0.000,0.000,0.000,0.79960514351,0.15030950051,0.0000,0.000000000,0.000000000,0.000000000,0.00000000000,0.00000000000,0.00000000000,0.00000000000,0.00000000000,0.00000000000,4402957.8071,666835.8982,4550862.1942,0.0000,0.0000,0.0000,0.000,0.000,0.000,0.79960514351,0.15030950051,0.0000,2.159
28000,4402957.8071,666835.8982,4550862.1942,0.0000,0.0000,0.0000,0.000,0.000,0.000,0.000,0.000,0.000,0.79960514351,0.15030950051,0.0000,0.000000000,0.000000000,0.000000000,0.00000000000,0.00000000000,0.00000000000,0.00000000000,0.00000000000,0.00000000000,4402957.8071,666835.8982,4550862.1942,0.0000,0.0000,0.0000,0.000,0.000,0.000,0.79960514351,0.15030950051,0.0000,2.159
29000,4402957.8071,666835.8982,4550862.1942,0.0000,0.0000,0.0000,0.000,0.000,0.000,0.000,0.000,0.000,0.79960514351,0.15030950051,0.0000,0.000000000,0.000000000,0.000000000,0.00000000000,0.00000000000,0.00000000000,0.00000000000,0.00000000000,0.00000000000,4402957.8071,666835.8982,4550862.1942,0.0000,0.0000,0.0000,0.000,0.000,0.000,0.79960514351,0.15030950051,0.0000,2.159
30000,4402957.8071,666835.8982,4550862.1942,0.0000,0.0000,0.0000,0.000,0.000,0.000,0.000,0.000,0.000,0.79960514351,0.15030950051,0.0000,0.000000000,0.000000000,0.000000000,0.00000000000,0.00000000000,0.00000000000,0.00000000000,0.00000000000,0.00000000000,4402957.8071,666835.8982,4550862.1942,0.0000,0.0000,0.0000,0.000,0.000,0.000,0.79960514351,0.15030950051,0.0000,2.165
31000,4402957.8071,666835.8982,4550862.1942,0.0000,0.0000,0.0000,0.000,0.000,0.000,0.000,0.000,0.000,0.79960514351,0.15030950051,0.0000,0.000000000,0.000000000,0.000000000,0.00000000000,0.00000000000,0.00000000000,0.00000000000,0.00000000000,0.00000000000,4402957.8071,666835.8982,4550862.1942,0.0000,0.0000,0.0000,0.000,0.000,0.000,0.79960514351,0.15030950051,0.0000,2.165
32000,4402957.8071,666835.8982,4550862.1942,0.0000,0.0000,0.0000,0.000,0.000,0.000,0.000,0.000,0.000,0.79960514351,0.15030950051,0.0000,0.000000000,0.000000000,0.000000000,0.00000000000,0.00000000000,0.00000000000,0.00000000000,0.00000000000,0.00000000000,4402957.8071,666835.8982,4550862.1942,0.0000,0.0000,0.0000,0.000,0.000,0.000,0.79960514351,0.15030950051,0.0000,2.165
33000,4402957.8071,666835.8982,4550862.1942,0.0000,0.0000,0.0000,0.000,0.000,0.000,0.000,0.000,0.000,0.79960514351,0.15030950051,0.0000,0.000000000,0.000000000,0.000000000,0.00000000000,0.00000000000,0.00000000000,0.00000000000,0.00000000000,0.00000000000,4402957.8071,666835.8982,4550862.1942,0.0000,0.0000,0.0000,0.000,0.000,0.000,0.79960514351,0.15030950051,0.0000,2.165
34000,4402957.8071,666835.8982,4550862.1942,0.0000,0.0000,0.0000,0.000,0.000,0.000,0.000,0.000,0.000,0.79960514351,0.15030950051,0.0000,0.000000000,0.000000000,0.000000000,0.00000000000,0.00000000000,0.00000000000,0.00000000000,0.00000000000,0.00000000000,4402957.8071,666835.8982,4550862.1942,0.0000,0.0000,0.0000,0.000,0.000,0.000,0.79960514351,0.15030950051,0.0000,2.165
35000,4402957.8071,666835.8982,4550862.1942,0.0000,0.0000,0.0000,0.000,0.000,0.000,0.000,0.000,0.000,0.79960514351,0.15030950051,0.0000,0.000000000,0.000000000,0.000000000,0.00000000000,0.00000000000,0.00000000000,0.00000000000,0.00000000000,0.00000000000,4402957.8071,666835.8982,4550862.1942,0.0000,0.0000,0.0000,0.000,0.000,0.000,0.79960514351,0.15030950051,0.0000,2.165
36000,4402957.8071,666835.8982,4550862.1942,0.0000,0.0000,0.0000,0.000,0.000,0.000,0.000,0.000,0.000,0.79960514351,0.15030950051,0.0000,0.000000000,0.000000000,0.000000000,0.00000000000,0.00000000000,0.00000000000,0.00000000000,0.00000000000,0.00000000000,4402957.8071,666835.8982,4550862.1942,0.0000,0.0000,0.0000,0.000,0.000,0.000,0.79960514351,0.15030950051,0.0000,2.170
37000,4402957.8071,666835.8982,4550862.1942,0.0000,0.0000,0.0000,0.000,0.000,0.000,0.000,0.000,0.000,0.79960514351,0.15030950051,0.0000,0.000000000,0.000000000,0.000000000,0.00000000000,0.00000000000,0.00000000000,0.00000000000,0.00000000000,0.00000000000,4402957.8071,666835.8982,4550862.1942,0.0000,0.0000,0.0000,0.000,0.000,0.000,0.79960514351,0.15030950051,0.0000,2.170
38000,4402957.8071,666835.8982,4550862.1942,0.0000,0.0000,0.0000,0.000,0.000,0.000,0.000,0.000,0.000,0.79960514351,0.15030950051,0.0000,0.000000000,0.000000000,0.000000000,0.00000000000,0.00000000000,0.00000000000,0.00000000000,0.00000000000,0.00000000000,4402957.8071,666835.8982,4550862.1942,0.0000,0.0000,0.0000,0.000,0.000,0.000,0.79960514351,0.15030950051,0.0000,2.170
39000,4402957.8071,666835.8982,4550862.1942,0.0000,0.0000,0.0000,0.000,0.000,0.000,0.000,0.000,0.000,0.79960514351,0.15030950051,0.0000,0.000000000,0.000000000,0.000000000,0.00000000000,0.00000000000,0.00000000000,0.00000000000,0.00000000000,0.00000000000,4402957.8071,666835.8982,4550862.1942,0.0000,0.0000,0.0000,0.000,0.000,0.000,0.79960514351,0.15030950051,0.0000,2.170
40000,4402957.8071,666835.8982,4550862.1942,0.0000,0.0000,0.0000,0.000,0.000,0.000,0.000,0.000,0.000,0.79960514351,0.15030950051,0.0000,0.000000000,0.000000000,0.000000000,0.00000000000,0.00000000000,0.00000000000,0.00000000000,0.00000000000,0.00000000000,4402957.8071,666835.8982,4550862.1942,0.0000,0.0000,0.0000,0.000,0.000,0.000,0.79960514351,0.15030950051,0.0000,2.170
41000,4402957.8071,666835.8982,4550862.1942,0.0000,0.0000,0.0000,0.000,0.000,0.000,0.000,0.000,0.000,0.79960514351,0.15030950051,0.0000,0.000000000,0.000000000,0.000000000,0.00000000000,0.00000000000,0.00000000000,0.00000000000,0.00000000000,0.00000000000,4402957.8071,666835.8982,4550862.1942,0.0000,0.0000,0.0000,0.000,0.000,0.000,0.79960514351,0.15030950051,0.0000,2.170
42000,4402957.8071,666835.8982,4550862.1942,0.0000,0.0000,0.0000,0.000,0.000,0.000,0.000,0.000,0.000,0.79960514351,0.15030950051,0.0000,0.000000000,0.000000000,0.000000000,0.00000000000,0.00000000000,0.00000000000,0.00000000000,0.00000000000,0.00000000000,4402957.8071,666835.8982,4550862.1942,0.0000,0.0000,0.0000,0.000,0.000,0.000,0.79960514351,0.15030950051,0.0000,2.176
43000,4402957.8071,666835.8982,4550862.1942,0.0000,0.0000,0.0000,0.000,0.000,0.000,0.000,0.000,0.000,0.79960514351,0.15030950051,0.0000,0.000000000,0.000000000,0.000000000,0.00000000000,0.00000000000,0.00000000000,0.00000000000,0.00000000000,0.00000000000,4402957.8071,666835.8982,4550862.1942,0.0000,0.0000,0.0000,0.000,0.000,0.000,0.79960514351,0.15030950051,0.0000,2.176
44000,4402957.8071,666835.8982,4550862.1942,0.0000,0.0000,0.0000,0.000,0.000,0.000,0.000,0.000,0.000,0.79960514351,0.15030950051,0.0000,0.000000000,0.000000000,0.000000000,0.00000000000,0.00000000000,0.00000000000,0.00000000000,0.00000000000,0.00000000000,4402957.8071,666835.8982,4550862.1942,0.0000,0.0000,0.0000,0.000,0.000,0.000,0.79960514351,0.15030950051,0.0000,2.176
45000,4402957.8071,666835.8982,4550862.1942,0.0000,0.0000,0.0000,0.000,0.000,0.000,0.000,0.000,0.000,0.79960514351,0.15030950051,0.0000,0.000000000,0.000000000,0.000000000,0.00000000000,0.00000000000,0.00000000000,0.00000000000,0.00000000000,0.00000000000,4402957.8071,666835.8982,4550862.1942,0.0000,0.0000,0.0000,0.000,0.000,0.000,0.79960514351,0.15030950051,0.0000,2.176
46000,4402957.8071,666835.8982,4550862.1942,0.0000,0.0000,0.0000,0.000,0.000,0.000,0.000,0.000,0.000,0.79960514351,0.15030950051,0.0000,0.000000000,0.000000000,0.000000000,0.00000000000,0.00000000000,0.00000000000,0.00000000000,0.00000000000,0.00000000000,4402957.8071,666835.8982,4550862.1942,0.0000,0.0000,0.0000,0.000,0.000,0.000,0.79960514351,0.15030950051,0.0000,2.176
47000,4402957.8071,666835.8982,4550862.1942,0.0000,0.0000,0.0000,0.000,0.000,0.000,0.000,0.000,0.000,0.79960514351,0.15030950051,0.0000,0.000000000,0.000000000,0.000000000,0.00000000000,0.00000000000,0.00000000000,0.00000000000,0.00000000000,0.00000000000,4402957.8071,666835.8982,4550862.1942,0.0000,0.0000,0.0000,0.000,0.000,0.000,0.79960514351,0.15030950051,0.0000,2.176
48000,4402957.8071,666835.8982,4550862.1942,0.0000,0.0000,0.0000,0.000,0.000,0.000,0.000,0.000,0.000,0.79960514351,0.15030950051,0.0000,0.000000000,0.000000000,0.000000000,0.00000000000,0.00000000000,0.00000000000,0.00000000000,0.00000000000,0.00000000000,4402957.8071,666835.8982,4550862.1942,0.0000,0.0000,0.0000,0.000,0.000,0.000,0.79960514351,0.15030950051,0.0000,2.182
49000,4402957.8071,666835.8982,4550862.1942,0.0000,0.0000,0.0000,0.000,0.000,0.000,0.000,0.000,0.000,0.79960514351,0.15030950051,0.0000,0.000000000,0.000000000,0.000000000,0.00000000000,0.00000000000,0.00000000000,0.00000000000,0.00000000000,0.00000000000,4402957.8071,666835.8982,4550862.1942,0.0000,0.0000,0.0000,0.000,0.000,0.000,0.79960514351,0.15030950051,0.0000,2.182
50000,4402957.8071,666835.8982,4550862.1942,0.0000,0.0000,0.0000,0.000,0.000,0.000,0.000,0.000,0.000,0.79960514351,0.15030950051,0.0000,0.000000000,0.000000000,0.000000000,0.00000000000,0.00000000000,0.00000000000,0.00000000000,0.00000000000,0.00000000000,4402957.8071,666835.8982,4550862.1942,0.0000,0.0000,0.0000,0.000,0.000,0.000,0.79960514351,0.15030950051,0.0000,2.182
51000,4402957.8071,666835.8982,4550862.1942,0.0000,0.0000,0.0000,0.000,0.000,0.000,0.000,0.000,0.000,0.79960514351,0.15030950051,0.0000,0.000000000,0.000000000,0.000000000,0.00000000000,0.00000000000,0.00000000000,0.00000000000,0.00000000000,0.00000000000,4402957.8071,666835.8982,4550862.1942,0.0000,0.0000,0.0000,0.000,0.000,0.000,0.79960514351,0.15030950051,0.0000,2.182
52000,4402957.8071,666835.8982,4550862.1942,0.0000,0.0000,0.0000,0.000,0.000,0.000,0.000,0.000,0.000,0.79960514351,0.15030950051,0.0000,0.000000000,0.000000000,0.000000000,0.00000000000,0.00000000000,0.00000000000,0.00000000000,0.00000000000,0.00000000000,4402957.8071,666835.8982,4550862.1942,0.0000,0.0000,0.0000,0.000,0.000,0.000,0.79960514351,0.15030950051,0.0000,2.182
53000,4402957.8071,666835.8982,4550862.1942,0.0000,0.0000,0.0000,0.000,0.000,0.000,0.000,0.000,0.000,0.79960514351,0.15030950051,0.0000,0.000000000,0.000000000,0.000000000,0.00000000000,0.00000000000,0.00000000000,0.00000000000,0.00000000000,0.00000000000,4402957.8071,666835.8982,4550862.1942,0.0000,0.0000,0.0000,0.000,0.000,0.000,0.79960514351,0.15030950051,0.0000,2.182
54000,4402957.8071,666835.8982,4550862.1942,0.0000,0.0000,0.0000,0.000,0.000,0.000,0.000,0.000,0.000,0.79960514351,0.15030950051,0.0000,0.000000000,0.000000000,0.000000000,0.00000000000,0.00000000000,0.00000000000,0.00000000000,0.00000000000,0.00000000000,4402957.8071,666835.8982,4550862.1942,0.0000,0.0000,0.0000,0.000,0.000,0.000,0.79960514351,0.15030950051,0.0000,2.188
55000,4402957.8071,666835.8982,4550862.1942,0.0000,0.0000,0.0000,0.000,0.000,0.000,0.000,0.000,0.000,0.79960514351,0.15030950051,0.0000,0.000000000,0.000000000,0.000000000,0.00000000000,0.00000000000,0.00000000000,0.00000000000,0.00000000000,0.00000000000,4402957.8071,666835.8982,4550862.1942,0.0000,0.0000,0.0000,0.000,0.000,0.000,0.79960514351,0.15030950051,0.0000,2.188
56000,4402957.8071,666835.8982,4550862.1942,0.0000,0.0000,0.0000,0.000,0.000,0.000,0.000,0.000,0.000,0.79960514351,0.15030950051,0.0000,0.000000000,0.000000000,0.000000000,0.00000000000,0.00000000000,0.00000000000,0.00000000000,0.00000000000,0.00000000000,4402957.8071,666835.8982,4550862.1942,0.0000,0.0000,0.0000,0.000,0.000,0.000,0.79960514351,0.15030950051,0.0000,2.188
57000,4402957.8071,666835.8982,4550862.1942,0.0000,0.0000,0.0000,0.000,0.000,0.000,0.000,0.000,0.000,0.79960514351,0.15030950051,0.0000,0.000000000,0.000000000,0.000000000,0.00000000000,0.00000000000,0.00000000000,0.00000000000,0.00000000000,0.00000000000,4402957.8071,666835.8982,4550862.1942,0.0000,0.0000,0.0000,0.000,0.000,0.000,0.79960514351,0.15030950051,0.0000,2.188
58000,4402957.8071,666835.8982,4550862.1942,0.0000,0.0000,0.0000,0.000,0.000,0.000,0.000,0.000,0.000,0.79960514351,0.15030950051,0.0000,0.000000000,0.000000000,0.000000000,0.00000000000,0.00000000000,0.00000000000,0.00000000000,0.00000000000,0.00000000000,4402957.8071,666835.8982,4550862.1942,0.0000,0.0000,0.0000,0.000,0.000,0.000,0.79960514351,0.15030950051,0.0000,2.188
59000,4402957.8071,666835.8982,4550862.1942,0.0000,0.0000,0.0000,0.000,0.000,0.000,0.000,0.000,0.000,0.79960514351,0.15030950051,0.0000,0.000000000,0.000000000,0.000000000,0.00000000000,0.00000000000,0.00000000000,0.00000000000,0.00000000000,0.00000000000,4402957.8071,666835.8982,4550862.1942,0.0000,0.0000,0.0000,0.000,0.000,0.000,0.79960514351,0.15030950051,0.0000,2.188
60000,4402957.8071,666835.8982,4550862.1942,0.0000,0.0000,0.0000,0.000,0.000,0.000,0.000,0.000,0.000,0.79960514351,0.15030950051,0.0000,0.000000000,0.000000000,0.000000000,0.00000000000,0.00000000000,0.00000000000,0.00000000000,0.00000000000,0.00000000000,4402957.8071,666835.8982,4550862.1942,0.0000,0.0000,0.0000,0.000,0.000,0.000,0.79960514351,0.15030950051,0.0000,2.195
61000,4402957.8071,666835.8982,4550862.1942,0.0000,0.0000,0.0000,0.000,0.000,0.000,0.000,0.000,0.000,0.79960514351,0.15030950051,0.0000,0.000000000,0.000000000,0.000000000,0.00000000000,0.00000000000,0.00000000000,0.00000000000,0.00000000000,0.00000000000,4402957.8071,666835.8982,4550862.1942,0.0000,0.0000,0.0000,0.000,0.000,0.000,0.79960514351,0.15030950051,0.0000,2.195
62000,4402957.8071,666835.8982,4550862.1942,0.0000,0.0000,0.0000,0.000,0.000,0.000,0.000,0.000,0.000,0.79960514351,0.15030950051,0.0000,0.000000000,0.000000000,0.000000000,0.00000000000,0.00000000000,0.00000000000,0.00000000000,0.00000000000,0.00000000000,4402957.8071,666835.8982,4550862.1942,0.0000,0.0000,0.0000,0.000,0.000,0.000,0.79960514351,0.15030950051,0.0000,2.195
63000,4402957.8071,666835.8982,4550862.1942,0.0000,0.0000,0.0000,0.000,0.000,0.000,0.000,0.000,0.000,0.79960514351,0.15030950051,0.0000,0.000000000,0.000000000,0.000000000,0.00000000000,0.00000000000,0.00000000000,0.00000000000,0.00000000000,0.00000000000,4402957.8071,666835.8982,4550862.1942,0.0000,0.0000,0.0000,0.000,0.000,0.000,0.79960514351,0.15030950051,0.0000,2.195
64000,4402957.8071,666835.8982,4550862.1942,0.0000,0.0000,0.0000,0.000,0.000,0.000,0.000,0.000,0.000,0.79960514351,0.15030950051,0.0000,0.000000000,0.000000000,0.000000000,0.00000000000,0.00000000000,0.00000000000,0.00000000000,0.00000000000,0.00000000000,4402957.8071,666835.8982,4550862.1942,0.0000,0.0000,0.0000,0.000,0.000,0.000,0.79960514351,0.15030950051,0.0000,2.195
65000,4402957.8071,666835.8982,4550862.1942,0.0000,0.0000,0.0000,0.000,0.000,0.000,0.000,0.000,0.000,0.79960514351,0.15030950051,0.0000,0.000000000,0.000000000,0.000000000,0.00000000000,0.00000000000,0.00000000000,0.00000000000,0.00000000000,0.00000000000,4402957.8071,666835.8982,4550862.1942,0.0000,0.0000,0.0000,0.000,0.000,0.000,0.79960514351,0.15030950051,0.0000,2.195
66000,4402957.8071,666835.8982,4550862.1942,0.0000,0.0000,0.0000,0.000,0.000,0.000,0.000,0.000,0.000,0.79960514351,0.15030950051,0.0000,0.000000000,0.000000000,0.000000000,0.00000000000,0.00000000000,0.00000000000,0.00000000000,0.00000000000,0.00000000000,4402957.8071,666835.8982,4550862.1942,0.0000,0.0000,0.0000,0.000,0.000,0.000,0.79960514351,0.15030950051,0.0000,2.201
67000,4402957.8071,666835.8982,4550862.1942,0.0000,0.0000,0.0000,0.000,0.000,0.000,0.000,0.000,0.000,0.79960514351,0.15030950051,0.0000,0.000000000,0.000000000,0.000000000,0.00000000000,0.00000000000,0.00000000000,0.00000000000,0.00000000000,0.00000000000,4402957.8071,666835.8982,4550862.1942,0.0000,0.0000,0.0000,0.000,0.000,0.000,0.79960514351,0.15030950051,0.0000,2.201
68000,4402957.8071,666835.8982,4550862.1942,0.0000,0.0000,0.0000,0.000,0.000,0.000,0.000,0.000,0.000,0.79960514351,0.15030950051,0.0000,0.000000000,0.000000000,0.000000000,0.00000000000,0.00000000000,0.00000000000,0.00000000000,0.00000000000,0.00000000000,4402957.8071,666835.8982,4550862.1942,0.0000,0.0000,0.0000,0.000,0.000,0.000,0.79960514351,0.15030950051,0.0000,2.201
69000,4402957.8071,666835.8982,4550862.1942,0.0000,0.0000,0.0000,0.000,0.000,0.000,0.000,0.000,0.000,0.79960514351,0.15030950051,0.0000,0.000000000,0.000000000,0.000000000,0.00000000000,0.00000000000,0.00000000000,0.00000000000,0.00000000000,0.00000000000,4402957.8071,666835.8982,4550862.1942,0.0000,0.0000,0.0000,0.000,0.000,0.000,0.79960514351,0.15030950051,0.0000,2.201
70000,4402957.8071,666835.8982,4550862.1942,0.0000,0.0000,0.0000,0.000,0.000,0.000,0.000,0.000,0.000,0.79960514351,0.15030950051,0.0000,0.000000000,0.000000000,0.000000000,0.00000000000,0.00000000000,0.00000000000,0.00000000000,0.00000000000,0.00000000000,4402957.8071,666835.8982,4550862.1942,0.0000,0.0000,0.0000,0.000,0.000,0.000,0.79960514351,0.15030950051,0.0000,2.201
71000,4402957.8071,666835.8982,4550862.1942,0.0000,0.0000,0.0000,0.000,0.000,0.000,0.000,0.000,0.000,0.79960514351,0.15030950051,0.0000,0.000000000,0.000000000,0.000000000,0.00000000000,0.00000000000,0.00000000000,0.00000000000,0.00000000000,0.00000000000,4402957.8071,666835.8982,4550862.1942,0.0000,0.0000,0.0000,0.000,0.000,0.000,0.79960514351,0.15030950051,0.0000,2.201
72000,4402957.8071,666835.8982,4550862.1942,0.0000,0.0000,0.0000,0.000,0.000,0.000,0.000,0.000,0.000,0.79960514351,0.15030950051,0.0000,0.000000000,0.000000000,0.000000000,0.00000000000,0.00000000000,0.00000000000,0.00000000000,0.00000000000,0.00000000000,4402957.8071,666835.8982,4550862.1942,0.0000,0.0000,0.0000,0.000,0.000,0.000,0.79960514351,0.15030950051,0.0000,2.197
73000,4402957.8071,666835.8982,4550862.1942,0.0000,0.0000,0.0000,0.000,0.000,0.000,0.000,0.000,0.000,0.79960514351,0.15030950051,0.0000,0.000000000,0.000000000,0.000000000,0.00000000000,0.00000000000,0.00000000000,0.00000000000,0.00000000000,0.00000000000,4402957.8071,666835.8982,4550862.1942,0.0000,0.0000,0.0000,0.000,0.000,0.000,0.79960514351,0.15030950051,0.0000,2.197
74000,4402957.8071,666835.8982,4550862.1942,0.0000,0.0000,0.0000,0.000,0.000,0.000,0.000,0.000,0.000,0.79960514351,0.15030950051,0.0000,0.000000000,0.000000000,0.000000000,0.00000000000,0.00000000000,0.00000000000,0.00000000000,0.00000000000,0.00000000000,4402957.8071,666835.8982,4550862.1942,0.0000,0.0000,0.0000,0.000,0.000,0.000,0.79960514351,0.15030950051,0.0000,2.197
75000,4402957.8071,666835.8982,4550862.1942,0.0000,0.0000,0.0000,0.000,0.000,0.000,0.000,0.000,0.000,0.79960514351,0.15030950051,0.0000,0.000000000,0.000000000,0.000000000,0.00000000000,0.00000000000,0.00000000000,0.00000000000,0.00000000000,0.00000000000,4402957.8071,666835.8982,4550862.1942,0.0000,0.0000,0.0000,0.000,0.000,0.000,0.79960514351,0.15030950051,0.0000,2.197
76000,4402957.8071,666835.8982,4550862.1942,0.0000,0.0000,0.0000,0.000,0.000,0.000,0.000,0.000,0.000,0.79960514351,0.15030950051,0.0000,0.000000000,0.000000000,0.000000000,0.00000000000,0.00000000000,0.00000000000,0.00000000000,0.00000000000,0.00000000000,4402957.8071,666835.8982,4550862.1942,0.0000,0.0000,0.0000,0.000,0.000,0.000,0.79960514351,0.15030950051,0.0000,2.197
77000,4402957.8071,666835.8982,4550862.1942,0.0000,0.0000,0.0000,0.000,0.000,0.000,0.000,0.000,0.000,0.79960514351,0.15030950051,0.0000,0.000000000,0.000000000,0.000000000,0.00000000000,0.00000000000,0.00000000000,0.00000000000,0.00000000000,0.00000000000,4402957.8071,666835.8982,4550862.1942,0.0000,0.0000,0.0000,0.000,0.000,0.000,0.79960514351,0.15030950051,0.0000,2.197
78000,4402957.8071,666835.8982,4550862.1942,0.0000,0.0000,0.0000,0.000,0.000,0.000,0.000,0.000,0.000,0.79960514351,0.15030950051,0.0000,0.000000000,0.000000000,0.000000000,0.00000000000,0.00000000000,0.00000000000,0.00000000000,0.00000000000,0.00000000000,4402957.8071,666835.8982,4550862.1942,0.0000,0.0000,0.0000,0.000,0.000,0.000,0.79960514351,0.15030950051,0.0000,2.193
79000,4402957.8071,666835.8982,4550862.1942,0.0000,0.0000,0.0000,0.000,0.000,0.000,0.000,0.000,0.000,0.79960514351,0.15030950051,0.0000,0.000000000,0.000000000,0.000000000,0.00000000000,0.00000000000,0.00000000000,0.00000000000,0.00000000000,0.00000000000,4402957.8071,666835.8982,4550862.1942,0.0000,0.0000,0.0000,0.000,0.000,0.000,0.79960514351,0.15030950051,0.0000,2.193
80000,4402957.8071,666835.8982,4550862.1942,0.0000,0.0000,0.0000,0.000,0.000,0.000,0.000,0.000,0.000,0.79960514351,0.15030950051,0.0000,0.000000000,0.000000000,0.000000000,0.00000000000,0.00000000000,0.00000000000,0.00000000000,0.00000000000,0.00000000000,4402957.8071,666835.8982,4550862.1942,0.0000,0.0000,0.0000,0.000,0.000,0.000,0.79960514351,0.15030950051,0.0000,2.193
81000,4402957.8071,666835.8982,4550862.1942,0.0000,0.0000,0.0000,0.000,0.000,0.000,0.000,0.000,0.000,0.79960514351,0.15030950051,0.0000,0.000000000,0.000000000,0.000000000,0.00000000000,0.00000000000,0.00000000000,0.00000000000,0.00000000000,0.00000000000,4402957.8071,666835.8982,4550862.1942,0.0000,0.0000,0.0000,0.000,0.000,0.000,0.79960514351,0.15030950051,0.0000,2.193
82000,4402957.8071,666835.8982,4550862.1942,0.0000,0.0000,0.0000,0.000,0.000,0.000,0.000,0.000,0.000,0.79960514351,0.15030950051,0.0000,0.000000000,0.000000000,0.000000000,0.00000000000,0.00000000000,0.00000000000,0.00000000000,0.00000000000,0.00000000000,4402957.8071,666835.8982,4550862.1942,0.0000,0.0000,0.0000,0.000,0.000,0.000,0.79960514351,0.15030950051,0.0000,2.193
83000,4402957.8071,666835.8982,4550862.1942,0.0000,0.0000,0.0000,0.000,0.000,0.000,0.000,0.000,0.000,0.79960514351,0.15030950051,0.0000,0.000000000,0.000000000,0.000000000,0.00000000000,0.00000000000,0.00000000000,0.00000000000,0.00000000000,0.00000000000,4402957.8071,666835.8982,4550862.1942,0.0000,0.0000,0.0000,0.000,0.000,0.000,0.79960514351,0.15030950051,0.0000,2.193
84000,4402957.8071,666835.8982,4550862.1942,0.0000,0.0000,0.0000,0.000,0.000,0.000,0.000,0.000,0.000,0.79960514351,0.15030950051,0.0000,0.000000000,0.000000000,0.000000000,0.00000000000,0.00000000000,0.00000000000,0.00000000000,0.00000000000,0.00000000000,4402957.8071,666835.8982,4550862.1942,0.0000,0.0000,0.0000,0.000,0.000,0.000,0.79960514351,0.15030950051,0.0000,2.188
85000,4402957.8071,666835.8982,4550862.1942,0.0000,0.0000,0.0000,0.000,0.000,0.000,0.000,0.000,0.000,0.79960514351,0.15030950051,0.0000,0.000000000,0.000000000,0.000000000,0.00000000000,0.00000000000,0.00000000000,0.00000000000,0.00000000000,0.00000000000,4402957.8071,666835.8982,4550862.1942,0.0000,0.0000,0.0000,0.000,0.000,0.000,0.79960514351,0.15030950051,0.0000,2.188
86000,4402957.8071,666835.8982,4550862.1942,0.0000,0.0000,0.0000,0.000,0.000,0.000,0.000,0.000,0.000,0.79960514351,0.15030950051,0.0000,0.000000000,0.000000000,0.000000000,0.00000000000,0.00000000000,0.00000000000,0.00000000000,0.00000000000,0.00000000000,4402957.8071,666835.8982,4550862.1942,0.0000,0.0000,0.0000,0.000,0.000,0.000,0.79960514351,0.15030950051,0.0000,2.188
87000,4402957.8071,666835.8982,4550862.1942,0.0000,0.0000,0.0000,0.000,0.000,0.000,0.000,0.000,0.000,0.79960514351,0.15030950051,0.0000,0.000000000,0.000000000,0.000000000,0.00000000000,0.00000000000,0.00000000000,0.00000000000,0.00000000000,0.00000000000,4402957.8071,666835.8982,4550862.1942,0.0000,0.0000,0.0000,0.000,0.000,0.000,0.79960514351,0.15030950051,0.0000,2.188
88000,4402957.8071,666835.8982,4550862.1942,0.0000,0.0000,0.0000,0.000,0.000,0.000,0.000,0.000,0.000,0.79960514351,0.15030950051,0.0000,0.000000000,0.000000000,0.000000000,0.00000000000,0.00000000000,0.00000000000,0.00000000000,0.00000000000,0.00000000000,4402957.8071,666835.8982,4550862.1942,0.0000,0.0000,0.0000,0.000,0.000,0.000,0.79960514351,0.15030950051,0.0000,2.188
89000,4402957.8071,666835.8982,4550862.1942,0.0000,0.0000,0.0000,0.000,0.000,0.000,0.000,0.000,0.000,0.79960514351,0.15030950051,0.0000,0.000000000,0.000000000,0.000000000,0.00000000000,0.00000000000,0.00000000000,0.00000000000,0.00000000000,0.00000000000,4402957.8071,666835.8982,4550862.1942,0.0000,0.0000,0.0000,0.000,0.000,0.000,0.79960514351,0.15030950051,0.0000,2.188
90000,4402957.8071,666835.8982,4550862.1942,0.0000,0.0000,0.0000,0.000,0.000,0.000,0.000,0.000,0.000,0.79960514351,0.15030950051,0.0000,0.000000000,0.000000000,0.000000000,0.00000000000,0.00000000000,0.00000000000,0.00000000000,0.00000000000,0.00000000000,4402957.8071,666835.8982,4550862.1942,0.0000,0.0000,0.0000,0.000,0.000,0.000,0.79960514351,0.15030950051,0.0000,2.184
91000,4402957.8071,666835.8982,4550862.1942,0.0000,0.0000,0.0000,0.000,0.000,0.000,0.000,0.000,0.000,0.79960514351,0.15030950051,0.0000,0.000000000,0.000000000,0.000000000,0.00000000000,0.00000000000,0.00000000000,0.00000000000,0.00000000000,0.00000000000,4402957.8071,666835.8982,4550862.1942,0.0000,0.0000,0.0000,0.000,0.000,0.000,0.79960514351,0.15030950051,0.0000,2.184
92000,4402957.8071,666835.8982,4550862.1942,0.0000,0.0000,0.0000,0.000,0.000,0.000,0.000,0.000,0.000,0.79960514351,0.15030950051,0.0000,0.000000000,0.000000000,0.000000000,0.00000000000,0.00000000000,0.00000000000,0.00000000000,0.00000000000,0.00000000000,4402957.8071,666835.8982,4550862.1942,0.0000,0.0000,0.0000,0.000,0.000,0.000,0.79960514351,0.15030950051,0.0000,2.184
93000,4402957.8071,666835.8982,4550862.1942,0.0000,0.0000,0.0000,0.000,0.000,0.000,0.000,0.000,0.000,0.79960514351,0.15030950051,0.0000,0.000000000,0.000000000,0.000000000,0.00000000000,0.00000000000,0.00000000000,0.00000000000,0.00000000000,0.00000000000,4402957.8071,666835.8982,4550862.1942,0.0000,0.0000,0.0000,0.000,0.000,0.000,0.79960514351,0.15030950051,0.0000,2.184
94000,4402957.8071,666835.8982,4550862.1942,0.0000,0.0000,0.0000,0.000,0.000,0.000,0.000,0.000,0.000,0.79960514351,0.15030950051,0.0000,0.000000000,0.000000000,0.000000000,0.00000000000,0.00000000000,0.00000000000,0.00000000000,0.00000000000,0.00000000000,4402957.8071,666835.8982,4550862.1942,0.0000,0.0000,0.0000,0.000,0.000,0.000,0.79960514351,0.15030950051,0.0000,2.184
95000,4402957.8071,666835.8982,4550862.1942,0.0000,0.0000,0.0000,0.000,0.000,0.000,0.000,0.000,0.000,0.79960514351,0.15030950051,0.0000,0.000000000,0.000000000,0.000000000,0.00000000000,0.00000000000,0.00000000000,0.00000000000,0.00000000000,0.00000000000,4402957.8071,666835.8982,4550862.1942,0.0000,0.0000,0.0000,0.000,0.000,0.000,0.79960514351,0.15030950051,0.0000,2.184
96000,4402957.8071,666835.8982,4550862.1942,0.0000,0.0000,0.0000,0.000,0.000,0.000,0.000,0.000,0.000,0.79960514351,0.15030950051,0.0000,0.000000000,0.000000000,0.000000000,0.00000000000,0.00000000000,0.00000000000,0.00000000000,0.00000000000,0.00000000000,4402957.8071,666835.8982,4550862.1942,0.0000,0.0000,0.0000,0.000,0.000,0.000,0.79960514351,0.15030950051,0.0000,2.180
97000,4402957.8071,666835.8982,4550862.1942,0.0000,0.0000,0.0000,0.000,0.000,0.000,0.000,0.000,0.000,0.79960514351,0.15030950051,0.0000,0.000000000,0.000000000,0.000000000,0.00000000000,0.00000000000,0.00000000000,0.00000000000,0.00000000000,0.00000000000,4402957.8071,666835.8982,4550862.1942,0.0000,0.0000,0.0000,0.000,0.000,0.000,0.79960514351,0.15030950051,0.0000,2.180
98000,4402957.8071,666835.8982,4550862.1942,0.0000,0.0000,0.0000,0.000,0.000,0.000,0.000,0.000,0.000,0.79960514351,0.15030950051,0.0000,0.000000000,0.000000000,0.000000000,0.00000000000,0.00000000000,0.00000000000,0.00000000000,0.00000000000,0.00000000000,4402957.8071,666835.8982,4550862.1942,0.0000,0.0000,0.0000,0.000,0.000,0.000,0.79960514351,0.15030950051,0.0000,2.180
99000,4402957.8071,666835.8982,4550862.1942,0.0000,0.0000,0.0000,0.000,0.000,0.000,0.000,0.000,0.000,0.79960514351,0.15030950051,0.0000,0.000000000,0.000000000,0.000000000,0.00000000000,0.00000000000,0.00000000000,0.00000000000,0.00000000000,0.00000000000,4402957.8071,666835.8982,4550862.1942,0.0000,0.0000,0.0000,0.000,0.000,0.000,0.79960514351,0.15030950051,0.0000,2.180
100000,4402957.8071,666835.8982,4550862.1942,0.0000,0.0000,0.0000,0.000,0.000,0.000,0.000,0.000,0.000,0.79960514351,0.15030950051,0.0000,0.000000000,0.000000000,0.000000000,0.00000000000,0.00000000000,0.00000000000,0.00000000000,0.00000000000,0.00000000000,4402957.8071,666835.8982,4550862.1942,0.0000,0.0000,0.0000,0.000,0.000,0.000,0.79960514351,0.15030950051,0.0000,2.180
101000,4402957.8071,666835.8982,4550862.1942,0.0000,0.0000,0.0000,0.000,0.000,0.000,0.000,0.000,0.000,0.79960514351,0.15030950051,0.0000,0.000000000,0.000000000,0.000000000,0.00000000000,0.00000000000,0.00000000000,0.00000000000,0.00000000000,0.00000000000,4402957.8071,666835.8982,4550862.1942,0.0000,0.0000,0.0000,0.000,0.000,0.000,0.79960514351,0.15030950051,0.0000,2.180
102000,4402957.8071,666835.8982,4550862.1942,0.0000,0.0000,0.0000,0.000,0.000,0.000,0.000,0.000,0.000,0.79960514351,0.15030950051,0.0000,0.000000000,0.000000000,0.000000000,0.00000000000,0.00000000000,0.00000000000,0.00000000000,0.00000000000,0.00000000000,4402957.8071,666835.8982,4550862.1942,0.0000,0.0000,0.0000,0.000,0.000,0.000,0.79960514351,0.15030950051,0.0000,2.175
103000,4402957.8071,666835.8982,4550862.1942,0.0000,0.0000,0.0000,0.000,0.000,0.000,0.000,0.000,0.000,0.79960514351,0.15030950051,0.0000,0.000000000,0.000000000,0.000000000,0.00000000000,0.00000000000,0.00000000000,0.00000000000,0.00000000000,0.00000000000,4402957.8071,666835.8982,4550862.1942,0.0000,0.0000,0.0000,0.000,0.000,0.000,0.79960514351,0.15030950051,0.0000,2.175
104000,4402957.8071,666835.8982,4550862.1942,0.0000,0.0000,0.0000,0.000,0.000,0.000,0.000,0.000,0.000,0.79960514351,0.15030950051,0.0000,0.000000000,0.000000000,0.000000000,0.00000000000,0.00000000000,0.00000000000,0.00000000000,0.00000000000,0.00000000000,4402957.8071,666835.8982,4550862.1942,0.0000,0.0000,0.0000,0.000,0.000,0.000,0.79960514351,0.15030950051,0.0000,2.175
105000,4402957.8071,666835.8982,4550862.1942,0.0000,0.0000,0.0000,0.000,0.000,0.000,0.000,0.000,0.000,0.79960514351,0.15030950051,0.0000,0.000000000,0.000000000,0.000000000,0.00000000000,0.00000000000,0.00000000000,0.00000000000,0.00000000000,0.00000000000,4402957.8071,666835.8982,4550862.1942,0.0000,0.0000,0.0000,0.000,0.000,0.000,0.79960514351,0.15030950051,0.0000,2.175
106000,4402957.8071,666835.8982,4550862.1942,0.0000,0.0000,0.0000,0.000,0.000,0.000,0.000,0.000,0.000,0.79960514351,0.15030950051,0.0000,0.000000000,0.000000000,0.000000000,0.00000000000,0.00000000000,0.00000000000,0.00000000000,0.00000000000,0.00000000000,4402957.8071,666835.8982,4550862.1942,0.0000,0.0000,0.0000,0.000,0.000,0.000,0.79960514351,0.15030950051,0.0000,2.175
107000,4402957.8071,666835.8982,4550862.1942,0.0000,0.0000,0.0000,0.000,0.000,0.000,0.000,0.000,0.000,0.79960514351,0.15030950051,0.0000,0.000000000,0.000000000,0.000000000,0.00000000000,0.00000000000,0.00000000000,0.00000000000,0.00000000000,0.00000000000,4402957.8071,666835.8982,4550862.1942,0.0000,0.0000,0.0000,0.000,0.000,0.000,0.79960514351,0.15030950051,0.0000,2.175
108000,4402957.8071,666835.8982,4550862.1942,0.0000,0.0000,0.0000,0.000,0.000,0.000,0.000,0.000,0.000,0.79960514351,0.15030950051,0.0000,0.000000000,0.000000000,0.000000000,0.00000000000,0.00000000000,0.00000000000,0.00000000000,0.00000000000,0.00000000000,4402957.8071,666835.8982,4550862.1942,0.0000,0.0000,0.0000,0.000,0.000,0.000,0.79960514351,0.15030950051,0.0000,2.169
109000,4402957.8071,666835.8982,4550862.1942,0.0000,0.0000,0.0000,0.000,0.000,0.000,0.000,0.000,0.000,0.79960514351,0.15030950051,0.0000,0.000000000,0.000000000,0.000000000,0.00000000000,0.00000000000,0.00000000000,0.00000000000,0.00000000000,0.00000000000,4402957.8071,666835.8982,4550862.1942,0.0000,0.0000,0.0000,0.000,0.000,0.000,0.79960514351,0.15030950051,0.0000,2.169
110000,4402957.8071,666835.8982,4550862.1942,0.0000,0.0000,0.0000,0.000,0.000,0.000,0.000,0.000,0.000,0.79960514351,0.15030950051,0.0000,0.000000000,0.000000000,0.000000000,0.00000000000,0.00000000000,0.00000000000,0.00000000000,0.00000000000,0.00000000000,4402957.8071,666835.8982,4550862.1942,0.0000,0.0000,0.0000,0.000,0.000,0.000,0.79960514351,0.15030950051,0.0000,2.169
111000,4402957.8071,666835.8982,4550862.1942,0.0000,0.0000,0.0000,0.000,0.000,0.000,0.000,0.000,0.000,0.79960514351,0.15030950051,0.0000,0.000000000,0.000000000,0.000000000,0.00000000000,0.00000000000,0.00000000000,0.00000000000,0.00000000000,0.00000000000,4402957.8071,666835.8982,4550862.1942,0.0000,0.0000,0.0000,0.000,0.000,0.000,0.79960514351,0.15030950051,0.0000,2.169
112000,4402957.8071,666835.8982,4550862.1942,0.0000,0.0000,0.0000,0.000,0.000,0.000,0.000,0.000,0.000,0.79960514351,0.15030950051,0.0000,0.000000000,0.000000000,0.000000000,0.00000000000,0.00000000000,0.00000000000,0.00000000000,0.00000000000,0.00000000000,4402957.8071,666835.8982,4550862.1942,0.0000,0.0000,0.0000,0.000,0.000,0.000,0.79960514351,0.15030950051,0.0000,2.169
113000,4402957.8071,666835.8982,4550862.1942,0.0000,0.0000,0.0000,0.000,0.000,0.000,0.000,0.000,0.000,0.79960514351,0.15030950051,0.0000,0.000000000,0.000000000,0.000000000,0.00000000000,0.00000000000,0.00000000000,0.00000000000,0.00000000000,0.00000000000,4402957.8071,666835.8982,4550862.1942,0.0000,0.0000,0.0000,0.000,0.000,0.000,0.79960514351,0.15030950051,0.0000,2.169
114000,4402957.8071,666835.8982,4550862.1942,0.0000,0.0000,0.0000,0.000,0.000,0.000,0.000,0.000,0.000,0.79960514351,0.15030950051,0.0000,0.000000000,0.000000000,0.000000000,0.00000000000,0.00000000000,0.00000000000,0.00000000000,0.00000000000,0.00000000000,4402957.8071,666835.8982,4550862.1942,0.0000,0.0000,0.0000,0.000,0.000,0.000,0.79960514351,0.15030950051,0.0000,2.160
115000,4402957.8071,666835.8982,4550862.1942,0.0000,0.0000,0.0000,0.000,0.000,0.000,0.000,0.000,0.000,0.79960514351,0.15030950051,0.0000,0.000000000,0.000000000,0.000000000,0.00000000000,0.00000000000,0.00000000000,0.00000000000,0.00000000000,0.00000000000,4402957.8071,666835.8982,4550862.1942,0.0000,0.0000,0.0000,0.000,0.000,0.000,0.79960514351,0.15030950051,0.0000,2.160
116000,4402957.8071,666835.8982,4550862.1942,0.0000,0.0000,0.0000,0.000,0.000,0.000,0.000,0.000,0.000,0.79960514351,0.15030950051,0.0000,0.000000000,0.000000000,0.000000000,0.00000000000,0.00000000000,0.00000000000,0.00000000000,0.00000000000,0.00000000000,4402957.8071,666835.8982,4550862.1942,0.0000,0.0000,0.0000,0.000,0.000,0.000,0.79960514351,0.15030950051,0.0000,2.160
117000,4402957.8071,666835.8982,4550862.1942,0.0000,0.0000,0.0000,0.000,0.000,0.000,0.000,0.000,0.000,0.79960514351,0.15030950051,0.0000,0.000000000,0.000000000,0.000000000,0.00000000000,0.00000000000,0.00000000000,0.00000000000,0.00000000000,0.00000000000,4402957.8071,666835.8982,4550862.1942,0.0000,0.0000,0.0000,0.000,0.000,0.000,0.79960514351,0.15030950051,0.0000,2.160
118000,4402957.8071,666835.8982,4550862.1942,0.0000,0.0000,0.0000,0.000,0.000,0.000,0.000,0.000,0.000,0.79960514351,0.15030950051,0.0000,0.000000000,0.000000000,0.000000000,0.00000000000,0.00000000000,0.00000000000,0.00000000000,0.00000000000,0.00000000000,4402957.8071,666835.8982,4550862.1942,0.0000,0.0000,0.0000,0.000,0.000,0.000,0.79960514351,0.15030950051,0.0000,2.160
119000,4402957.8071,666835.8982,4550862.1942,0.0000,0.0000,0.0000,0.000,0.000,0.000,0.000,0.000,0.000,0.79960514351,0.15030950051,0.0000,0.000000000,0.000000000,0.000000000,0.00000000000,0.00000000000,0.00000000000,0.00000000000,0.00000000000,0.00000000000,4402957.8071,666835.8982,4550862.1942,0.0000,0.0000,0.0000,0.000,0.000,0.000,0.79960514351,0.15030950051,0.0000,2.160
120000,4402957.8071,666835.8982,4550862.1942,0.0000,0.0000,0.0000,0.000,0.000,0.000,0.000,0.000,0.000,0.79960514351,0.15030950051,0.0000,0.000000000,0.000000000,0.000000000,0.00000000000,0.00000000000,0.00000000000,0.00000000000,0.00000000000,0.00000000000,4402957.8071,666835.8982,4550862.1942,0.0000,0.0000,0.0000,0.000,0.000,0.000,0.79960514351,0.15030950051,0.0000,2.152
121000,4402957.8071,666835.8982,4550862.1942,0.0000,0.0000,0.0000,0.000,0.000,0.000,0.000,0.000,0.000,0.79960514351,0.15030950051,0.0000,0.000000000,0.000000000,0.000000000,0.00000000000,0.00000000000,0.00000000000,0.00000000000,0.00000000000,0.00000000000,4402957.8071,666835.8982,4550862.1942,0.0000,0.0000,0.0000,0.000,0.000,0.000,0.79960514351,0.15030950051,0.0000,2.152
122000,4402957.8071,666835.8982,4550862.1942,0.0000,0.0000,0.0000,0.000,0.000,0.000,0.000,0.000,0.000,0.79960514351,0.15030950051,0.0000,0.000000000,0.000000000,0.000000000,0.00000000000,0.00000000000,0.00000000000,0.00000000000,0.00000000000,0.00000000000,4402957.8071,666835.8982,4550862.1942,0.0000,0.0000,0.0000,0.000,0.000,0.000,0.79960514351,0.15030950051,0.0000,2.152
123000,4402957.8071,666835.8982,4550862.1942,0.0000,0.0000,0.0000,0.000,0.000,0.000,0.000,0.000,0.000,0.79960514351,0.15030950051,0.0000,0.000000000,0.000000000,0.000000000,0.00000000000,0.00000000000,0.00000000000,0.00000000000,0.00000000000,0.00000000000,4402957.8071,666835.8982,4550862.1942,0.0000,0.0000,0.0000,0.000,0.000,0.000,0.79960514351,0.15030950051,0.0000,2.152
124000,4402957.8071,666835.8982,4550862.1942,0.0000,0.0000,0.0000,0.000,0.000,0.000,0.000,0.000,0.000,0.79960514351,0.15030950051,0.0000,0.000000000,0.000000000,0.000000000,0.00000000000,0.00000000000,0.00000000000,0.00000000000,0.00000000000,0.00000000000,4402957.8071,666835.8982,4550862.1942,0.0000,0.0000,0.0000,0.000,0.000,0.000,0.79960514351,0.15030950051,0.0000,2.152
125000,4402957.8071,666835.8982,4550862.1942,0.0000,0.0000,0.0000,0.000,0.000,0.000,0.000,0.000,0.000,0.79960514351,0.15030950051,0.0000,0.000000000,0.000000000,0.000000000,0.00000000000,0.00000000000,0.00000000000,0.00000000000,0.00000000000,0.00000000000,4402957.8071,666835.8982,4550862.1942,0.0000,0.0000,0.0000,0.000,0.000,0.000,0.79960514351,0.15030950051,0.0000,2.152
126000,4402957.8071,666835.8982,4550862.1942,0.0000,0.0000,0.0000,0.000,0.000,0.000,0.000,0.000,0.000,0.79960514351,0.15030950051,0.0000,0.000000000,0.000000000,0.000000000,0.00000000000,0.00000000000,0.00000000000,0.00000000000,0.00000000000,0.00000000000,4402957.8071,666835.8982,4550862.1942,0.0000,0.0000,0.0000,0.000,0.000,0.000,0.79960514351,0.15030950051,0.0000,2.144
127000,4402957.8071,666835.8982,4550862.1942,0.0000,0.0000,0.0000,0.000,0.000,0.000,0.000,0.000,0.000,0.79960514351,0.15030950051,0.0000,0.000000000,0.000000000,0.000000000,0.00000000000,0.00000000000,0.00000000000,0.00000000000,0.00000000000,0.00000000000,4402957.8071,666835.8982,4550862.1942,0.0000,0.0000,0.0000,0.000,0.000,0.000,0.79960514351,0.15030950051,0.0000,2.144
128000,4402957.8071,666835.8982,4550862.1942,0.0000,0.0000,0.0000,0.000,0.000,0.000,0.000,0.000,0.000,0.79960514351,0.15030950051,0.0000,0.000000000,0.000000000,0.000000000,0.00000000000,0.00000000000,0.00000000000,0.00000000000,0.00000000000,0.00000000000,4402957.8071,666835.8982,4550862.1942,0.0000,0.0000,0.0000,0.000,0.000,0.000,0.79960514351,0.15030950051,0.0000,2.144
129000,4402957.8071,666835.8982,4550862.1942,0.0000,0.0000,0.0000,0.000,0.000,0.000,0.000,0.000,0.000,0.79960514351,0.15030950051,0.0000,0.000000000,0.000000000,0.000000000,0.00000000000,0.00000000000,0.00000000000,0.00000000000,0.00000000000,0.00000000000,4402957.8071,666835.8982,4550862.1942,0.0000,0.0000,0.0000,0.000,0.000,0.000,0.79960514351,0.15030950051,0.0000,2.144
130000,4402957.8071,666835.8982,4550862.1942,0.0000,0.0000,0.0000,0.000,0.000,0.000,0.000,0.000,0.000,0.79960514351,0.15030950051,0.0000,0.000000000,0.000000000,0.000000000,0.00000000000,0.00000000000,0.00000000000,0.00000000000,0.00000000000,0.00000000000,4402957.8071,666835.8982,4550862.1942,0.0000,0.0000,0.0000,0.000,0.000,0.000,0.79960514351,0.15030950051,0.0000,2.144
131000,4402957.8071,666835.8982,4550862.1942,0.0000,0.0000,0.0000,0.000,0.000,0.000,0.000,0.000,0.000,0.79960514351,0.15030950051,0.0000,0.000000000,0.000000000,0.000000000,0.00000000000,0.00000000000,0.00000000000,0.00000000000,0.00000000000,0.00000000000,4402957.8071,666835.8982,4550862.1942,0.0000,0.0000,0.0000,0.000,0.000,0.000,0.79960514351,0.15030950051,0.0000,2.144
132000,4402957.8071,666835.8982,4550862.1942,0.0000,0.0000,0.0000,0.000,0.000,0.000,0.000,0.000,0.000,0.79960514351,0.15030950051,0.0000,0.000000000,0.000000000,0.000000000,0.00000000000,0.00000000000,0.00000000000,0.00000000000,0.00000000000,0.00000000000,4402957.8071,666835.8982,4550862.1942,0.0000,0.0000,0.0000,0.000,0.000,0.000,0.79960514351,0.15030950051,0.0000,2.137
133000,4402957.8071,666835.8982,4550862.1942,0.0000,0.0000,0.0000,0.000,0.000,0.000,0.000,0.000,0.000,0.79960514351,0.15030950051,0.0000,0.000000000,0.000000000,0.000000000,0.00000000000,0.00000000000,0.00000000000,0.00000000000,0.00000000000,0.00000000000,4402957.8071,666835.8982,4550862.1942,0.0000,0.0000,0.0000,0.000,0.000,0.000,0.79960514351,0.15030950051,0.0000,2.137
134000,4402957.8071,666835.8982,4550862.1942,0.0000,0.0000,0.0000,0.000,0.000,0.000,0.000,0.000,0.000,0.79960514351,0.15030950051,0.0000,0.000000000,0.000000000,0.000000000,0.00000000000,0.00000000000,0.00000000000,0.00000000000,0.00000000000,0.00000000000,4402957.8071,666835.8982,4550862.1942,0.0000,0.0000,0.0000,0.000,0.000,0.000,0.79960514351,0.15030950051,0.0000,2.137
135000,4402957.8071,666835.8982,4550862.1942,0.0000,0.0000,0.0000,0.000,0.000,0.000,0.000,0.000,0.000,0.79960514351,0.15030950051,0.0000,0.000000000,0.000000000,0.000000000,0.00000000000,0.00000000000,0.00000000000,0.00000000000,0.00000000000,0.00000000000,4402957.8071,666835.8982,4550862.1942,0.0000,0.0000,0.0000,0.000,0.000,0.000,0.79960514351,0.15030950051,0.0000,2.137
136000,4402957.8071,666835.8982,4550862.1942,0.0000,0.0000,0.0000,0.000,0.000,0.000,0.000,0.000,0.000,0.79960514351,0.15030950051,0.0000,0.000000000,0.000000000,0.000000000,0.00000000000,0.00000000000,0.00000000000,0.00000000000,0.00000000000,0.00000000000,4402957.8071,666835.8982,4550862.1942,0.0000,0.0000,0.0000,0.000,0.000,0.000,0.79960514351,0.15030950051,0.0000,2.137
137000,4402957.8071,666835.8982,4550862.1942,0.0000,0.0000,0.0000,0.000,0.000,0.000,0.000,0.000,0.000,0.79960514351,0.15030950051,0.0000,0.000000000,0.000000000,0.000000000,0.00000000000,0.00000000000,0.00000000000,0.00000000000,0.00000000000,0.00000000000,4402957.8071,666835.8982,4550862.1942,0.0000,0.0000,0.0000,0.000,0.000,0.000,0.79960514351,0.15030950051,0.0000,2.137
138000,4402957.8071,666835.8982,4550862.1942,0.0000,0.0000,0.0000,0.000,0.000,0.000,0.000,0.000,0.000,0.79960514351,0.15030950051,0.0000,0.000000000,0.000000000,0.000000000,0.00000000000,0.00000000000,0.00000000000,0.00000000000,0.00000000000,0.00000000000,4402957.8071,666835.8982,4550862.1942,0.0000,0.0000,0.0000,0.000,0.000,0.000,0.79960514351,0.15030950051,0.0000,2.131
139000,4402957.8071,666835.8982,4550862.1942,0.0000,0.0000,0.0000,0.000,0.000,0.000,0.000,0.000,0.000,0.79960514351,0.15030950051,0.0000,0.000000000,0.000000000,0.000000000,0.00000000000,0.00000000000,0.00000000000,0.00000000000,0.00000000000,0.00000000000,4402957.8071,666835.8982,4550862.1942,0.0000,0.0000,0.0000,0.000,0.000,0.000,0.79960514351,0.15030950051,0.0000,2.131
140000,4402957.8071,666835.8982,4550862.1942,0.0000,0.0000,0.0000,0.000,0.000,0.000,0.000,0.000,0.000,0.79960514351,0.15030950051,0.0000,0.000000000,0.000000000,0.000000000,0.00000000000,0.00000000000,0.00000000000,0.00000000000,0.00000000000,0.00000000000,4402957.8071,666835.8982,4550862.1942,0.0000,0.0000,0.0000,0.000,0.000,0.000,0.79960514351,0.15030950051,0.0000,2.131
141000,4402957.8071,666835.8982,4550862.1942,0.0000,0.0000,0.0000,0.000,0.000,0.000,0.000,0.000,0.000,0.79960514351,0.15030950051,0.0000,0.000000000,0.000000000,0.000000000,0.00000000000,0.00000000000,0.00000000000,0.00000000000,0.00000000000,0.00000000000,4402957.8071,666835.8982,4550862.1942,0.0000,0.0000,0.0000,0.000,0.000,0.000,0.79960514351,0.15030950051,0.0000,2.131
142000,4402957.8071,666835.8982,4550862.1942,0.0000,0.0000,0.0000,0.000,0.000,0.000,0.000,0.000,0.000,0.79960514351,0.15030950051,0.0000,0.000000000,0.000000000,0.000000000,0.00000000000,0.00000000000,0.00000000000,0.00000000000,0.00000000000,0.00000000000,4402957.8071,666835.8982,4550862.1942,0.0000,0.0000,0.0000,0.000,0.000,0.000,0.79960514351,0.15030950051,0.0000,2.131
143000,4402957.8071,666835.8982,4550862.1942,0.0000,0.0000,0.0000,0.000,0.000,0.000,0.000,0.000,0.000,0.79960514351,0.15030950051,0.0000,0.000000000,0.000000000,0.000000000,0.00000000000,0.00000000000,0.00000000000,0.00000000000,0.00000000000,0.00000000000,4402957.8071,666835.8982,4550862.1942,0.0000,0.0000,0.0000,0.000,0.000,0.000,0.79960514351,0.15030950051,0.0000,2.131
144000,4402957.8071,666835.8982,4550862.1942,0.0000,0.0000,0.0000,0.000,0.000,0.000,0.000,0.000,0.000,0.79960514351,0.15030950051,0.0000,0.000000000,0.000000000,0.000000000,0.00000000000,0.00000000000,0.00000000000,0.00000000000,0.00000000000,0.00000000000,4402957.8071,666835.8982,4550862.1942,0.0000,0.0000,0.0000,0.000,0.000,0.000,0.79960514351,0.15030950051,0.0000,2.125
145000,4402957.8071,666835.8982,4550862.1942,0.0000,0.0000,0.0000,0.000,0.000,0.000,0.000,0.000,0.000,0.79960514351,0.15030950051,0.0000,0.000000000,0.000000000,0.000000000,0.00000000000,0.00000000000,0.00000000000,0.00000000000,0.00000000000,0.00000000000,4402957.8071,666835.8982,4550862.1942,0.0000,0.0000,0.0000,0.000,0.000,0.000,0.79960514351,0.15030950051,0.0000,2.125
146000,4402957.8071,666835.8982,4550862.1942,0.0000,0.0000,0.0000,0.000,0.000,0.000,0.000,0.000,0.000,0.79960514351,0.15030950051,0.0000,0.000000000,0.000000000,0.000000000,0.00000000000,0.00000000000,0.00000000000,0.00000000000,0.00000000000,0.00000000000,4402957.8071,666835.8982,4550862.1942,0.0000,0.0000,0.0000,0.000,0.000,0.000,0.79960514351,0.15030950051,0.0000,2.125
147000,4402957.8071,666835.8982,4550862.1942,0.0000,0.0000,0.0000,0.000,0.000,0.000,0.000,0.000,0.000,0.79960514351,0.15030950051,0.0000,0.000000000,0.000000000,0.000000000,0.00000000000,0.00000000000,0.00000000000,0.00000000000,0.00000000000,0.00000000000,4402957.8071,666835.8982,4550862.1942,0.0000,0.0000,0.0000,0.000,0.000,0.000,0.79960514351,0.15030950051,0.0000,2.125
148000,4402957.8071,666835.8982,4550862.1942,0.0000,0.0000,0.0000,0.000,0.000,0.000,0.000,0.000,0.000,0.79960514351,0.15030950051,0.0000,0.000000000,0.000000000,0.000000000,0.00000000000,0.00000000000,0.00000000000,0.00000000000,0.00000000000,0.00000000000,4402957.8071,666835.8982,4550862.1942,0.0000,0.0000,0.0000,0.000,0.000,0.000,0.79960514351,0.15030950051,0.0000,2.125
149000,4402957.8071,666835.8982,4550862.1942,0.0000,0.0000,0.0000,0.000,0.000,0.000,0.000,0.000,0.000,0.79960514351,0.15030950051,0.0000,0.000000000,0.000000000,0.000000000,0.00000000000,0.00000000000,0.00000000000,0.00000000000,0.00000000000,0.00000000000,4402957.8071,666835.8982,4550862.1942,0.0000,0.0000,0.0000,0.000,0.000,0.000,0.79960514351,0.15030950051,0.0000,2.125
150000,4402957.8071,666835.8982,4550862.1942,0.0000,0.0000,0.0000,0.000,0.000,0.000,0.000,0.000,0.000,0.79960514351,0.15030950051,0.0000,0.000000000,0.000000000,0.000000000,0.00000000000,0.00000000000,0.00000000000,0.00000000000,0.00000000000,0.00000000000,4402957.8071,666835.8982,4550862.1942,0.0000,0.0000,0.0000,0.000,0.000,0.000,0.79960514351,0.15030950051,0.0000,2.120
151000,4402957.8071,666835.8982,4550862.1942,0.0000,0.0000,0.0000,0.000,0.000,0.000,0.000,0.000,0.000,0.79960514351,0.15030950051,0.0000,0.000000000,0.000000000,0.000000000,0.00000000000,0.00000000000,0.00000000000,0.00000000000,0.00000000000,0.00000000000,4402957.8071,666835.8982,4550862.1942,0.0000,0.0000,0.0000,0.000,0.000,0.000,0.79960514351,0.15030950051,0.0000,2.120
152000,4402957.8071,666835.8982,4550862.1942,0.0000,0.0000,0.0000,0.000,0.000,0.000,0.000,0.000,0.000,0.79960514351,0.15030950051,0.0000,0.000000000,0.000000000,0.000000000,0.00000000000,0.00000000000,0.00000000000,0.00000000000,0.00000000000,0.00000000000,4402957.8071,666835.8982,4550862.1942,0.0000,0.0000,0.0000,0.000,0.000,0.000,0.79960514351,0.15030950051,0.0000,2.120
153000,4402957.8071,666835.8982,4550862.1942,0.0000,0.0000,0.0000,0.000,0.000,0.000,0.000,0.000,0.000,0.79960514351,0.15030950051,0.0000,0.000000000,0.000000000,0.000000000,0.00000000000,0.00000000000,0.00000000000,0.00000000000,0.00000000000,0.00000000000,4402957.8071,666835.8982,4550862.1942,0.0000,0.0000,0.0000,0.000,0.000,0.000,0.79960514351,0.15030950051,0.0000,2.120
154000,4402957.8071,666835.8982,4550862.1942,0.0000,0.0000,0.0000,0.000,0.000,0.000,0.000,0.000,0.000,0.79960514351,0.15030950051,0.0000,0.000000000,0.000000000,0.000000000,0.00000000000,0.00000000000,0.00000000000,0.00000000000,0.00000000000,0.00000000000,4402957.8071,666835.8982,4550862.1942,0.0000,0.0000,0.0000,0.000,0.000,0.000,0.79960514351,0.15030950051,0.0000,2.120
155000,4402957.8071,666835.8982,4550862.1942,0.0000,0.0000,0.0000,0.000,0.000,0.000,0.000,0.000,0.000,0.79960514351,0.15030950051,0.0000,0.000000000,0.000000000,0.000000000,0.00000000000,0.00000000000,0.00000000000,0.00000000000,0.00000000000,0.00000000000,4402957.8071,666835.8982,4550862.1942,0.0000,0.0000,0.0000,0.000,0.000,0.000,0.79960514351,0.15030950051,0.0000,2.120
156000,4402957.8071,666835.8982,4550862.1942,0.0000,0.0000,0.0000,0.000,0.000,0.000,0.000,0.000,0.000,0.79960514351,0.15030950051,0.0000,0.000000000,0.000000000,0.000000000,0.00000000000,0.00000000000,0.00000000000,0.00000000000,0.00000000000,0.00000000000,4402957.8071,666835.8982,4550862.1942,0.0000,0.0000,0.0000,0.000,0.000,0.000,0.79960514351,0.15030950051,0.0000,2.115
157000,4402957.8071,666835.8982,4550862.1942,0.0000,0.0000,0.0000,0.000,0.000,0.000,0.000,0.000,0.000,0.79960514351,0.15030950051,0.0000,0.000000000,0.000000000,0.000000000,0.00000000000,0.00000000000,0.00000000000,0.00000000000,0.00000000000,0.00000000000,4402957.8071,666835.8982,4550862.1942,0.0000,0.0000,0.0000,0.000,0.000,0.000,0.79960514351,0.15030950051,0.0000,2.115
158000,4402957.8071,666835.8982,4550862.1942,0.0000,0.0000,0.0000,0.000,0.000,0.000,0.000,0.000,0.000,0.79960514351,0.15030950051,0.0000,0.000000000,0.000000000,0.000000000,0.00000000000,0.00000000000,0.00000000000,0.00000000000,0.00000000000,0.00000000000,4402957.8071,666835.8982,4550862.1942,0.0000,0.0000,0.0000,0.000,0.000,0.000,0.79960514351,0.15030950051,0.0000,2.115
159000,4402957.8071,666835.8982,4550862.1942,0.0000,0.0000,0.0000,0.000,0.000,0.000,0.000,0.000,0.000,0.79960514351,0.15030950051,0.0000,0.000000000,0.000000000,0.000000000,0.00000000000,0.00000000000,0.00000000000,0.00000000000,0.00000000000,0.00000000000,4402957.8071,666835.8982,4550862.1942,0.0000,0.0000,0.0000,0.000,0.000,0.000,0.79960514351,0.15030950051,0.0000,2.115
160000,4402957.8071,666835.8982,4550862.1942,0.0000,0.0000,0.0000,0.000,0.000,0.000,0.000,0.000,0.000,0.79960514351,0.15030950051,0.0000,0.000000000,0.000000000,0.000000000,0.00000000000,0.00000000000,0.00000000000,0.00000000000,0.00000000000,0.00000000000,4402957.8071,666835.8982,4550862.1942,0.0000,0.0000,0.0000,0.000,0.000,0.000,0.79960514351,0.15030950051,0.0000,2.115
161000,4402957.8071,666835.8982,4550862.1942,0.0000,0.0000,0.0000,0.000,0.000,0.000,0.000,0.000,0.000,0.79960514351,0.15030950051,0.0000,0.000000000,0.000000000,0.000000000,0.00000000000,0.00000000000,0.00000000000,0.00000000000,0.00000000000,0.00000000000,4402957.8071,666835.8982,4550862.1942,0.0000,0.0000,0.0000,0.000,0.000,0.000,0.79960514351,0.15030950051,0.0000,2.115
162000,4402957.8071,666835.8982,4550862.1942,0.0000,0.0000,0.0000,0.000,0.000,0.000,0.000,0.000,0.000,0.79960514351,0.15030950051,0.0000,0.000000000,0.000000000,0.000000000,0.00000000000,0.00000000000,0.00000000000,0.00000000000,0.00000000000,0.00000000000,4402957.8071,666835.8982,4550862.1942,0.0000,0.0000,0.0000,0.000,0.000,0.000,0.79960514351,0.15030950051,0.0000,2.111
163000,4402957.8071,666835.8982,4550862.1942,0.0000,0.0000,0.0000,0.000,0.000,0.000,0.000,0.000,0.000,0.79960514351,0.15030950051,0.0000,0.000000000,0.000000000,0.000000000,0.00000000000,0.00000000000,0.00000000000,0.00000000000,0.00000000000,0.00000000000,4402957.8071,666835.8982,4550862.1942,0.0000,0.0000,0.0000,0.000,0.000,0.000,0.79960514351,0.15030950051,0.0000,2.111
164000,4402957.8071,666835.8982,4550862.1942,0.0000,0.0000,0.0000,0.000,0.000,0.000,0.000,0.000,0.000,0.79960514351,0.15030950051,0.0000,0.000000000,0.000000000,0.000000000,0.00000000000,0.00000000000,0.00000000000,0.00000000000,0.00000000000,0.00000000000,4402957.8071,666835.8982,4550862.1942,0.0000,0.0000,0.0000,0.000,0.000,0.000,0.79960514351,0.15030950051,0.0000,2.111
165000,4402957.8071,666835.8982,4550862.1942,0.0000,0.0000,0.0000,0.000,0.000,0.000,0.000,0.000,0.000,0.79960514351,0.15030950051,0.0000,0.000000000,0.000000000,0.000000000,0.00000000000,0.00000000000,0.00000000000,0.00000000000,0.00000000000,0.00000000000,4402957.8071,666835.8982,4550862.1942,0.0000,0.0000,0.0000,0.000,0.000,0.000,0.79960514351,0.15030950051,0.0000,2.111
166000,4402957.8071,666835.8982,4550862.1942,0.0000,0.0000,0.0000,0.000,0.000,0.000,0.000,0.000,0.000,0.79960514351,0.15030950051,0.0000,0.000000000,0.000000000,0.000000000,0.00000000000,0.00000000000,0.00000000000,0.00000000000,0.00000000000,0.00000000000,4402957.8071,666835.8982,4550862.1942,0.0000,0.0000,0.0000,0.000,0.000,0.000,0.79960514351,0.15030950051,0.0000,2.111
167000,4402957.8071,666835.8982,4550862.1942,0.0000,0.0000,0.0000,0.000,0.000,0.000,0.000,0.000,0.000,0.79960514351,0.15030950051,0.0000,0.000000000,0.000000000,0.000000000,0.00000000000,0.00000000000,0.00000000000,0.00000000000,0.00000000000,0.00000000000,4402957.8071,666835.8982,4550862.1942,0.0000,0.0000,0.0000,0.000,0.000,0.000,0.79960514351,0.15030950051,0.0000,2.111
168000,4402957.8071,666835.8982,4550862.1942,0.0000,0.0000,0.0000,0.000,0.000,0.000,0.000,0.000,0.000,0.79960514351,0.15030950051,0.0000,0.000000000,0.000000000,0.000000000,0.00000000000,0.00000000000,0.00000000000,0.00000000000,0.00000000000,0.00000000000,4402957.8071,666835.8982,4550862.1942,0.0000,0.0000,0.0000,0.000,0.000,0.000,0.79960514351,0.15030950051,0.0000,2.107
169000,4402957.8071,666835.8982,4550862.1942,0.0000,0.0000,0.0000,0.000,0.000,0.000,0.000,0.000,0.000,0.79960514351,0.15030950051,0.0000,0.000000000,0.000000000,0.000000000,0.00000000000,0.00000000000,0.00000000000,0.00000000000,0.00000000000,0.00000000000,4402957.8071,666835.8982,4550862.1942,0.0000,0.0000,0.0000,0.000,0.000,0.000,0.79960514351,0.15030950051,0.0000,2.107
170000,4402957.8071,666835.8982,4550862.1942,0.0000,0.0000,0.0000,0.000,0.000,0.000,0.000,0.000,0.000,0.79960514351,0.15030950051,0.0000,0.000000000,0.000000000,0.000000000,0.00000000000,0.00000000000,0.00000000000,0.00000000000,0.00000000000,0.00000000000,4402957.8071,666835.8982,4550862.1942,0.0000,0.0000,0.0000,0.000,0.000,0.000,0.79960514351,0.15030950051,0.0000,2.107
171000,4402957.8071,666835.8982,4550862.1942,0.0000,0.0000,0.0000,0.000,0.000,0.000,0.000,0.000,0.000,0.79960514351,0.15030950051,0.0000,0.000000000,0.000000000,0.000000000,0.00000000000,0.00000000000,0.00000000000,0.00000000000,0.00000000000,0.00000000000,4402957.8071,666835.8982,4550862.1942,0.0000,0.0000,0.0000,0.000,0.000,0.000,0.79960514351,0.15030950051,0.0000,2.107
172000,4402957.8071,666835.8982,4550862.1942,0.0000,0.0000,0.0000,0.000,0.000,0.000,0.000,0.000,0.000,0.79960514351,0.15030950051,0.0000,0.000000000,0.000000000,0.000000000,0.00000000000,0.00000000000,0.00000000000,0.00000000000,0.00000000000,0.00000000000,4402957.8071,666835.8982,4550862.1942,0.0000,0.0000,0.0000,0.000,0.000,0.000,0.79960514351,0.15030950051,0.0000,2.107
173000,4402957.8071,666835.8982,4550862.1942,0.0000,0.0000,0.0000,0.000,0.000,0.000,0.000,0.000,0.000,0.79960514351,0.15030950051,0.0000,0.000000000,0.000000000,0.000000000,0.00000000000,0.00000000000,0.00000000000,0.00000000000,0.00000000000,0.00000000000,4402957.8071,666835.8982,4550862.1942,0.0000,0.0000,0.0000,0.000,0.000,0.000,0.79960514351,0.15030950051,0.0000,2.107
174000,4402957.8071,666835.8982,4550862.1942,0.0000,0.0000,0.0000,0.000,0.000,0.000,0.000,0.000,0.000,0.79960514351,0.15030950051,0.0000,0.000000000,0.000000000,0.000000000,0.00000000000,0.00000000000,0.00000000000,0.00000000000,0.00000000000,0.00000000000,4402957.8071,666835.8982,4550862.1942,0.0000,0.0000,0.0000,0.000,0.000,0.000,0.79960514351,0.15030950051,0.0000,2.103
175000,4402957.8071,666835.8982,4550862.1942,0.0000,0.0000,0.0000,0.000,0.000,0.000,0.000,0.000,0.000,0.79960514351,0.15030950051,0.0000,0.000000000,0.000000000,0.000000000,0.00000000000,0.00000000000,0.00000000000,0.00000000000,0.00000000000,0.00000000000,4402957.8071,666835.8982,4550862.1942,0.0000,0.0000,0.0000,0.000,0.000,0.000,0.79960514351,0.15030950051,0.0000,2.103
176000,4402957.8071,666835.8982,4550862.1942,0.0000,0.0000,0.0000,0.000,0.000,0.000,0.000,0.000,0.000,0.79960514351,0.15030950051,0.0000,0.000000000,0.000000000,0.000000000,0.00000000000,0.00000000000,0.00000000000,0.00000000000,0.00000000000,0.00000000000,4402957.8071,666835.8982,4550862.1942,0.0000,0.0000,0.0000,0.000,0.000,0.000,0.79960514351,0.15030950051,0.0000,2.103
177000,4402957.8071,666835.8982,4550862.1942,0.0000,0.0000,0.0000,0.000,0.000,0.000,0.000,0.000,0.000,0.79960514351,0.15030950051,0.0000,0.000000000,0.000000000,0.000000000,0.00000000000,0.00000000000,0.00000000000,0.00000000000,0.00000000000,0.00000000000,4402957.8071,666835.8982,4550862.1942,0.0000,0.0000,0.0000,0.000,0.000,0.000,0.79960514351,0.15030950051,0.0000,2.103
178000,4402957.8071,666835.8982,4550862.1942,0.0000,0.0000,0.0000,0.000,0.000,0.000,0.000,0.000,0.000,0.79960514351,0.15030950051,0.0000,0.000000000,0.000000000,0.000000000,0.00000000000,0.00000000000,0.00000000000,0.00000000000,0.00000000000,0.00000000000,4402957.8071,666835.8982,4550862.1942,0.0000,0.0000,0.0000,0.000,0.000,0.000,0.79960514351,0.15030950051,0.0000,2.103
179000,4402957.8071,666835.8982,4550862.1942,0.0000,0.0000,0.0000,0.000,0.000,0.000,0.000,0.000,0.000,0.79960514351,0.15030950051,0.0000,0.000000000,0.000000000,0.000000000,0.00000000000,0.00000000000,0.00000000000,0.00000000000,0.00000000000,0.00000000000,4402957.8071,666835.8982,4550862.1942,0.0000,0.0000,0.0000,0.000,0.000,0.000,0.79960514351,0.15030950051,0.0000,2.103
180000,4402957.8071,666835.8982,4550862.1942,0.0000,0.0000,0.0000,0.000,0.000,0.000,0.000,0.000,0.000,0.79960514351,0.15030950051,0.0000,0.000000000,0.000000000,0.000000000,0.00000000000,0.00000000000,0.00000000000,0.00000000000,0.00000000000,0.00000000000,4402957.8071,666835.8982,4550862.1942,0.0000,0.0000,0.0000,0.000,0.000,0.000,0.79960514351,0.15030950051,0.0000,2.100
181000,4402957.8071,666835.8982,4550862.1942,0.0000,0.0000,0.0000,0.000,0.000,0.000,0.000,0.000,0.000,0.79960514351,0.15030950051,0.0000,0.000000000,0.000000000,0.000000000,0.00000000000,0.00000000000,0.00000000000,0.00000000000,0.00000000000,0.00000000000,4402957.8071,666835.8982,4550862.1942,0.0000,0.0000,0.0000,0.000,0.000,0.000,0.79960514351,0.15030950051,0.0000,2.100
182000,4402957.8071,666835.8982,4550862.1942,0.0000,0.0000,0.0000,0.000,0.000,0.000,0.000,0.000,0.000,0.79960514351,0.15030950051,0.0000,0.000000000,0.000000000,0.000000000,0.00000000000,0.00000000000,0.00000000000,0.00000000000,0.00000000000,0.00000000000,4402957.8071,666835.8982,4550862.1942,0.0000,0.0000,0.0000,0.000,0.000,0.000,0.79960514351,0.15030950051,0.0000,2.100
183000,4402957.8071,666835.8982,4550862.1942,0.0000,0.0000,0.0000,0.000,0.000,0.000,0.000,0.000,0.000,0.79960514351,0.15030950051,0.0000,0.000000000,0.000000000,0.000000000,0.00000000000,0.00000000000,0.00000000000,0.00000000000,0.00000000000,0.00000000000,4402957.8071,666835.8982,4550862.1942,0.0000,0.0000,0.0000,0.000,0.000,0.000,0.79960514351,0.15030950051,0.0000,2.100
184000,4402957.8071,666835.8982,4550862.1942,0.0000,0.0000,0.0000,0.000,0.000,0.000,0.000,0.000,0.000,0.79960514351,0.15030950051,0.0000,0.000000000,0.000000000,0.000000000,0.00000000000,0.00000000000,0.00000000000,0.00000000000,0.00000000000,0.00000000000,4402957.8071,666835.8982,4550862.1942,0.0000,0.0000,0.0000,0.000,0.000,0.000,0.79960514351,0.15030950051,0.0000,2.100
185000,4402957.8071,666835.8982,4550862.1942,0.0000,0.0000,0.0000,0.000,0.000,0.000,0.000,0.000,0.000,0.79960514351,0.15030950051,0.0000,0.000000000,0.000000000,0.000000000,0.00000000000,0.00000000000,0.00000000000,0.00000000000,0.00000000000,0.00000000000,4402957.8071,666835.8982,4550862.1942,0.0000,0.0000,0.0000,0.000,0.000,0.000,0.79960514351,0.15030950051,0.0000,2.100
186000,4402957.8071,666835.8982,4550862.1942,0.0000,0.0000,0.0000,0.000,0.000,0.000,0.000,0.000,0.000,0.79960514351,0.15030950051,0.0000,0.000000000,0.000000000,0.000000000,0.00000000000,0.00000000000,0.00000000000,0.00000000000,0.00000000000,0.00000000000,4402957.8071,666835.8982,4550862.1942,0.0000,0.0000,0.0000,0.000,0.000,0.000,0.79960514351,0.15030950051,0.0000,2.098
187000,4402957.8071,666835.8982,4550862.1942,0.0000,0.0000,0.0000,0.000,0.000,0.000,0.000,0.000,0.000,0.79960514351,0.15030950051,0.0000,0.000000000,0.000000000,0.000000000,0.00000000000,0.00000000000,0.00000000000,0.00000000000,0.00000000000,0.00000000000,4402957.8071,666835.8982,4550862.1942,0.0000,0.0000,0.0000,0.000,0.000,0.000,0.79960514351,0.15030950051,0.0000,2.098
188000,4402957.8071,666835.8982,4550862.1942,0.0000,0.0000,0.0000,0.000,0.000,0.000,0.000,0.000,0.000,0.79960514351,0.15030950051,0.0000,0.000000000,0.000000000,0.000000000,0.00000000000,0.00000000000,0.00000000000,0.00000000000,0.00000000000,0.00000000000,4402957.8071,666835.8982,4550862.1942,0.0000,0.0000,0.0000,0.000,0.000,0.000,0.79960514351,0.15030950051,0.0000,2.098
189000,4402957.8071,666835.8982,4550862.1942,0.0000,0.0000,0.0000,0.000,0.000,0.000,0.000,0.000,0.000,0.79960514351,0.15030950051,0.0000,0.000000000,0.000000000,0.000000000,0.00000000000,0.00000000000,0.00000000000,0.00000000000,0.00000000000,0.00000000000,4402957.8071,666835.8982,4550862.1942,0.0000,0.0000,0.0000,0.000,0.000,0.000,0.79960514351,0.15030950051,0.0000,2.098
190000,4402957.8071,666835.8982,4550862.1942,0.0000,0.0000,0.0000,0.000,0.000,0.000,0.000,0.000,0.000,0.79960514351,0.15030950051,0.0000,0.000000000,0.000000000,0.000000000,0.00000000000,0.00000000000,0.00000000000,0.00000000000,0.00000000000,0.00000000000,4402957.8071,666835.8982,4550862.1942,0.0000,0.0000,0.0000,0.000,0.000,0.000,0.79960514351,0.15030950051,0.0000,2.098
191000,4402957.8071,666835.8982,4550862.1942,0.0000,0.0000,0.0000,0.000,0.000,0.000,0.000,0.000,0.000,0.79960514351,0.15030950051,0.0000,0.000000000,0.000000000,0.000000000,0.00000000000,0.00000000000,0.00000000000,0.00000000000,0.00000000000,0.00000000000,4402957.8071,666835.8982,4550862.1942,0.0000,0.0000,0.0000,0.000,0.000,0.000,0.79960514351,0.15030950051,0.0000,2.098
192000,4402957.8071,666835.8982,4550862.1942,0.0000,0.0000,0.0000,0.000,0.000,0.000,0.000,0.000,0.000,0.79960514351,0.15030950051,0.0000,0.000000000,0.000000000,0.000000000,0.00000000000,0.00000000000,0.00000000000,0.00000000000,0.00000000000,0.00000000000,4402957.8071,666835.8982,4550862.1942,0.0000,0.0000,0.0000,0.000,0.000,0.000,0.79960514351,0.15030950051,0.0000,2.096
193000,4402957.8071,666835.8982,4550862.1942,0.0000,0.0000,0.0000,0.000,0.000,0.000,0.000,0.000,0.000,0.79960514351,0.15030950051,0.0000,0.000000000,0.000000000,0.000000000,0.00000000000,0.00000000000,0.00000000000,0.00000000000,0.00000000000,0.00000000000,4402957.8071,666835.8982,4550862.1942,0.0000,0.0000,0.0000,0.000,0.000,0.000,0.79960514351,0.15030950051,0.0000,2.096
194000,4402957.8071,666835.8982,4550862.1942,0.0000,0.0000,0.0000,0.000,0.000,0.000,0.000,0.000,0.000,0.79960514351,0.15030950051,0.0000,0.000000000,0.000000000,0.000000000,0.00000000000,0.00000000000,0.00000000000,0.00000000000,0.00000000000,0.00000000000,4402957.8071,666835.8982,4550862.1942,0.0000,0.0000,0.0000,0.000,0.000,0.000,0.79960514351,0.15030950051,0.0000,2.096
195000,4402957.8071,666835.8982,4550862.1942,0.0000,0.0000,0.0000,0.000,0.000,0.000,0.000,0.000,0.000,0.79960514351,0.15030950051,0.0000,0.000000000,0.000000000,0.000000000,0.00000000000,0.00000000000,0.00000000000,0.00000000000,0.00000000000,0.00000000000,4402957.8071,666835.8982,4550862.1942,0.0000,0.0000,0.0000,0.000,0.000,0.000,0.79960514351,0.15030950051,0.0000,2.096
196000,4402957.8071,666835.8982,4550862.1942,0.0000,0.0000,0.0000,0.000,0.000,0.000,0.000,0.000,0.000,0.79960514351,0.15030950051,0.0000,0.000000000,0.000000000,0.000000000,0.00000000000,0.00000000000,0.00000000000,0.00000000000,0.00000000000,0.00000000000,4402957.8071,666835.8982,4550862.1942,0.0000,0.0000,0.0000,0.000,0.000,0.000,0.79960514351,0.15030950051,0.0000,2.096
197000,4402957.8071,666835.8982,4550862.1942,0.0000,0.0000,0.0000,0.000,0.000,0.000,0.000,0.000,0.000,0.79960514351,0.15030950051,0.0000,0.000000000,0.000000000,0.000000000,0.00000000000,0.00000000000,0.00000000000,0.00000000000,0.00000000000,0.00000000000,4402957.8071,666835.8982,4550862.1942,0.0000,0.0000,0.0000,0.000,0.000,0.000,0.79960514351,0.15030950051,0.0000,2.096
198000,4402957.8071,666835.8982,4550862.1942,0.0000,0.0000,0.0000,0.000,0.000,0.000,0.000,0.000,0.000,0.79960514351,0.15030950051,0.0000,0.000000000,0.000000000,0.000000000,0.00000000000,0.00000000000,0.00000000000,0.00000000000,0.00000000000,0.00000000000,4402957.8071,666835.8982,4550862.1942,0.0000,0.0000,0.0000,0.000,0.000,0.000,0.79960514351,0.15030950051,0.0000,2.094
199000,4402957.8071,666835.8982,4550862.1942,0.0000,0.0000,0.0000,0.000,0.000,0.000,0.000,0.000,0.000,0.79960514351,0.15030950051,0.0000,0.000000000,0.000000000,0.000000000,0.00000000000,0.00000000000,0.00000000000,0.00000000000,0.00000000000,0.00000000000,4402957.8071,666835.8982,4550862.1942,0.0000,0.0000,0.0000,0.000,0.000,0.000,0.79960514351,0.15030950051,0.0000,2.094
200000,4402957.8071,666835.8982,4550862.1942,0.0000,0.0000,0.0000,0.000,0.000,0.000,0.000,0.000,0.000,0.79960514351,0.15030950051,0.0000,0.000000000,0.000000000,0.000000000,0.00000000000,0.00000000000,0.00000000000,0.00000000000,0.00000000000,0.00000000000,4402957.8071,666835.8982,4550862.1942,0.0000,0.0000,0.0000,0.000,0.000,0.000,0.79960514351,0.15030950051,0.0000,2.094
201000,4402957.8071,666835.8982,4550862.1942,0.0000,0.0000,0.0000,0.000,0.000,0.000,0.000,0.000,0.000,0.79960514351,0.15030950051,0.0000,0.000000000,0.000000000,0.000000000,0.00000000000,0.00000000000,0.00000000000,0.00000000000,0.00000000000,0.00000000000,4402957.8071,666835.8982,4550862.1942,0.0000,0.0000,0.0000,0.000,0.000,0.000,0.79960514351,0.15030950051,0.0000,2.094
202000,4402957.8071,666835.8982,4550862.1942,0.0000,0.0000,0.0000,0.000,0.000,0.000,0.000,0.000,0.000,0.79960514351,0.15030950051,0.0000,0.000000000,0.000000000,0.000000000,0.00000000000,0.00000000000,0.00000000000,0.00000000000,0.00000000000,0.00000000000,4402957.8071,666835.8982,4550862.1942,0.0000,0.0000,0.0000,0.000,0.000,0.000,0.79960514351,0.15030950051,0.0000,2.094
203000,4402957.8071,666835.8982,4550862.1942,0.0000,0.0000,0.0000,0.000,0.000,0.000,0.000,0.000,0.000,0.79960514351,0.15030950051,0.0000,0.000000000,0.000000000,0.000000000,0.00000000000,0.00000000000,0.00000000000,0.00000000000,0.00000000000,0.00000000000,4402957.8071,666835.8982,4550862.1942,0.0000,0.0000,0.0000,0.000,0.000,0.000,0.79960514351,0.15030950051,0.0000,2.094
204000,4402957.8071,666835.8982,4550862.1942,0.0000,0.0000,0.0000,0.000,0.000,0.000,0.000,0.000,0.000,0.79960514351,0.15030950051,0.0000,0.000000000,0.000000000,0.000000000,0.00000000000,0.00000000000,0.00000000000,0.00000000000,0.00000000000,0.00000000000,4402957.8071,666835.8982,4550862.1942,0.0000,0.0000,0.0000,0.000,0.000,0.000,0.79960514351,0.15030950051,0.0000,2.093
205000,4402957.8071,666835.8982,4550862.1942,0.0000,0.0000,0.0000,0.000,0.000,0.000,0.000,0.000,0.000,0.79960514351,0.15030950051,0.0000,0.000000000,0.000000000,0.000000000,0.00000000000,0.00000000000,0.00000000000,0.00000000000,0.00000000000,0.00000000000,4402957.8071,666835.8982,4550862.1942,0.0000,0.0000,0.0000,0.000,0.000,0.000,0.79960514351,0.15030950051,0.0000,2.093
206000,4402957.8071,666835.8982,4550862.1942,0.0000,0.0000,0.0000,0.000,0.000,0.000,0.000,0.000,0.000,0.79960514351,0.15030950051,0.0000,0.000000000,0.000000000,0.000000000,0.00000000000,0.00000000000,0.00000000000,0.00000000000,0.00000000000,0.00000000000,4402957.8071,666835.8982,4550862.1942,0.0000,0.0000,0.0000,0.000,0.000,0.000,0.79960514351,0.15030950051,0.0000,2.093
207000,4402957.8071,666835.8982,4550862.1942,0.0000,0.0000,0.0000,0.000,0.000,0.000,0.000,0.000,0.000,0.79960514351,0.15030950051,0.0000,0.000000000,0.000000000,0.000000000,0.00000000000,0.00000000000,0.00000000000,0.00000000000,0.00000000000,0.00000000000,4402957.8071,666835.8982,4550862.1942,0.0000,0.0000,0.0000,0.000,0.000,0.000,0.79960514351,0.15030950051,0.0000,2.093
208000,4402957.8071,666835.8982,4550862.1942,0.0000,0.0000,0.0000,0.000,0.000,0.000,0.000,0.000,0.000,0.79960514351,0.15030950051,0.0000,0.000000000,0.000000000,0.000000000,0.00000000000,0.00000000000,0.00000000000,0.00000000000,0.00000000000,0.00000000000,4402957.8071,666835.8982,4550862.1942,0.0000,0.0000,0.0000,0.000,0.000,0.000,0.79960514351,0.15030950051,0.0000,2.093
209000,4402957.8071,666835.8982,4550862.1942,0.0000,0.0000,0.0000,0.000,0.000,0.000,0.000,0.000,0.000,0.79960514351,0.15030950051,0.0000,0.000000000,0.000000000,0.000000000,0.00000000000,0.00000000000,0.00000000000,0.00000000000,0.00000000000,0.00000000000,4402957.8071,666835.8982,4550862.1942,0.0000,0.0000,0.0000,0.000,0.000,0.000,0.79960514351,0.15030950051,0.0000,2.093
210000,4402957.8071,666835.8982,4550862.1942,0.0000,0.0000,0.0000,0.000,0.000,0.000,0.000,0.000,0.000,0.79960514351,0.15030950051,0.0000,0.000000000,0.000000000,0.000000000,0.00000000000,0.00000000000,0.00000000000,0.00000000000,0.00000000000,0.00000000000,4402957.8071,666835.8982,4550862.1942,0.0000,0.0000,0.0000,0.000,0.000,0.000,0.79960514351,0.15030950051,0.0000,2.092
211000,4402957.8071,666835.8982,4550862.1942,0.0000,0.0000,0.0000,0.000,0.000,0.000,0.000,0.000,0.000,0.79960514351,0.15030950051,0.0000,0.000000000,0.000000000,0.000000000,0.00000000000,0.00000000000,0.00000000000,0.00000000000,0.00000000000,0.00000000000,4402957.8071,666835.8982,4550862.1942,0.0000,0.0000,0.0000,0.000,0.000,0.000,0.79960514351,0.15030950051,0.0000,2.092
212000,4402957.8071,666835.8982,4550862.1942,0.0000,0.0000,0.0000,0.000,0.000,0.000,0.000,0.000,0.000,0.79960514351,0.15030950051,0.0000,0.000000000,0.000000000,0.000000000,0.00000000000,0.00000000000,0.00000000000,0.00000000000,0.00000000000,0.00000000000,4402957.8071,666835.8982,4550862.1942,0.0000,0.0000,0.0000,0.000,0.000,0.000,0.79960514351,0.15030950051,0.0000,2.092
213000,4402957.8071,666835.8982,4550862.1942,0.0000,0.0000,0.0000,0.000,0.000,0.000,0.000,0.000,0.000,0.79960514351,0.15030950051,0.0000,0.000000000,0.000000000,0.000000000,0.00000000000,0.00000000000,0.00000000000,0.00000000000,0.00000000000,0.00000000000,4402957.8071,666835.8982,4550862.1942,0.0000,0.0000,0.0000,0.000,0.000,0.000,0.79960514351,0.15030950051,0.0000,2.092
214000,4402957.8071,666835.8982,4550862.1942,0.0000,0.0000,0.0000,0.000,0.000,0.000,0.000,0.000,0.000,0.79960514351,0.15030950051,0.0000,0.000000000,0.000000000,0.000000000,0.00000000000,0.00000000000,0.00000000000,0.00000000000,0.00000000000,0.00000000000,4402957.8071,666835.8982,4550862.1942,0.0000,0.0000,0.0000,0.000,0.000,0.000,0.79960514351,0.15030950051,0.0000,2.092
215000,4402957.8071,666835.8982,4550862.1942,0.0000,0.0000,0.0000,0.000,0.000,0.000,0.000,0.000,0.000,0.79960514351,0.15030950051,0.0000,0.000000000,0.000000000,0.000000000,0.00000000000,0.00000000000,0.00000000000,0.00000000000,0.00000000000,0.00000000000,4402957.8071,666835.8982,4550862.1942,0.0000,0.0000,0.0000,0.000,0.000,0.000,0.79960514351,0.15030950051,0.0000,2.092
216000,4402957.8071,666835.8982,4550862.1942,0.0000,0.0000,0.0000,0.000,0.000,0.000,0.000,0.000,0.000,0.79960514351,0.15030950051,0.0000,0.000000000,0.000000000,0.000000000,0.00000000000,0.00000000000,0.00000000000,0.00000000000,0.00000000000,0.00000000000,4402957.8071,666835.8982,4550862.1942,0.0000,0.0000,0.0000,0.000,0.000,0.000,0.79960514351,0.15030950051,0.0000,2.092
217000,4402957.8071,666835.8982,4550862.1942,0.0000,0.0000,0.0000,0.000,0.000,0.000,0.000,0.000,0.000,0.79960514351,0.15030950051,0.0000,0.000000000,0.000000000,0.000000000,0.00000000000,0.00000000000,0.00000000000,0.00000000000,0.00000000000,0.00000000000,4402957.8071,666835.8982,4550862.1942,0.0000,0.0000,0.0000,0.000,0.000,0.000,0.79960514351,0.15030950051,0.0000,2.092
218000,4402957.8071,666835.8982,4550862.1942,0.0000,0.0000,0.0000,0.000,0.000,0.000,0.000,0.000,0.000,0.79960514351,0.15030950051,0.0000,0.000000000,0.000000000,0.000000000,0.00000000000,0.00000000000,0.00000000000,0.00000000000,0.00000000000,0.00000000000,4402957.8071,666835.8982,4550862.1942,0.0000,0.0000,0.0000,0.000,0.000,0.000,0.79960514351,0.15030950051,0.0000,2.092
219000,4402957.8071,666835.8982,4550862.1942,0.0000,0.0000,0.0000,0.000,0.000,0.000,0.000,0.000,0.000,0.79960514351,0.15030950051,0.0000,0.000000000,0.000000000,0.000000000,0.00000000000,0.00000000000,0.00000000000,0.00000000000,0.00000000000,0.00000000000,4402957.8071,666835.8982,4550862.1942,0.0000,0.0000,0.0000,0.000,0.000,0.000,0.79960514351,0.15030950051,0.0000,2.092
220000,4402957.8071,666835.8982,4550862.1942,0.0000,0.0000,0.0000,0.000,0.000,0.000,0.000,0.000,0.000,0.79960514351,0.15030950051,0.0000,0.000000000,0.000000000,0.000000000,0.00000000000,0.00000000000,0.00000000000,0.00000000000,0.00000000000,0.00000000000,4402957.8071,666835.8982,4550862.1942,0.0000,0.0000,0.0000,0.000,0.000,0.000,0.79960514351,0.15030950051,0.0000,2.092
221000,4402957.8071,666835.8982,4550862.1942,0.0000,0.0000,0.0000,0.000,0.000,0.000,0.000,0.000,0.000,0.79960514351,0.15030950051,0.0000,0.000000000,0.000000000,0.000000000,0.00000000000,0.00000000000,0.00000000000,0.00000000000,0.00000000000,0.00000000000,4402957.8071,666835.8982,4550862.1942,0.0000,0.0000,0.0000,0.000,0.000,0.000,0.79960514351,0.15030950051,0.0000,2.092
222000,4402957.8071,666835.8982,4550862.1942,0.0000,0.0000,0.0000,0.000,0.000,0.000,0.000,0.000,0.000,0.79960514351,0.15030950051,0.0000,0.000000000,0.000000000,0.000000000,0.00000000000,0.00000000000,0.00000000000,0.00000000000,0.00000000000,0.00000000000,4402957.8071,666835.8982,4550862.1942,0.0000,0.0000,0.0000,0.000,0.000,0.000,0.79960514351,0.15030950051,0.0000,2.092
223000,4402957.8071,666835.8982,4550862.1942,0.0000,0.0000,0.0000,0.000,0.000,0.000,0.000,0.000,0.000,0.79960514351,0.15030950051,0.0000,0.000000000,0.000000000,0.000000000,0.00000000000,0.00000000000,0.00000000000,0.00000000000,0.00000000000,0.00000000000,4402957.8071,666835.8982,4550862.1942,0.0000,0.0000,0.0000,0.000,0.000,0.000,0.79960514351,0.15030950051,0.0000,2.092
224000,4402957.8071,666835.8982,4550862.1942,0.0000,0.0000,0.0000,0.000,0.000,0.000,0.000,0.000,0.000,0.79960514351,0.15030950051,0.0000,0.000000000,0.000000000,0.000000000,0.00000000000,0.00000000000,0.00000000000,0.00000000000,0.00000000000,0.00000000000,4402957.8071,666835.8982,4550862.1942,0.0000,0.0000,0.0000,0.000,0.000,0.000,0.79960514351,0.15030950051,0.0000,2.092
225000,4402957.8071,666835.8982,4550862.1942,0.0000,0.0000,0.0000,0.000,0.000,0.000,0.000,0.000,0.000,0.79960514351,0.15030950051,0.0000,0.000000000,0.000000000,0.000000000,0.00000000000,0.00000000000,0.00000000000,0.00000000000,0.00000000000,0.00000000000,4402957.8071,666835.8982,4550862.1942,0.0000,0.0000,0.0000,0.000,0.000,0.000,0.79960514351,0.15030950051,0.0000,2.092
226000,4402957.8071,666835.8982,4550862.1942,0.0000,0.0000,0.0000,0.000,0.000,0.000,0.000,0.000,0.000,0.79960514351,0.15030950051,0.0000,0.000000000,0.000000000,0.000000000,0.00000000000,0.00000000000,0.00000000000,0.00000000000,0.00000000000,0.00000000000,4402957.8071,666835.8982,4550862.1942,0.0000,0.0000,0.0000,0.000,0.000,0.000,0.79960514351,0.15030950051,0.0000,2.092
227000,4402957.8071,666835.8982,4550862.1942,0.0000,0.0000,0.0000,0.000,0.000,0.000,0.000,0.000,0.000,0.79960514351,0.15030950051,0.0000,0.000000000,0.000000000,0.000000000,0.00000000000,0.00000000000,0.00000000000,0.00000000000,0.00000000000,0.00000000000,4402957.8071,666835.8982,4550862.1942,0.0000,0.0000,0.0000,0.000,0.000,0.000,0.79960514351,0.15030950051,0.0000,2.092
228000,4402957.8071,666835.8982,4550862.1942,0.0000,0.0000,0.0000,0.000,0.000,0.000,0.000,0.000,0.000,0.79960514351,0.15030950051,0.0000,0.000000000,0.000000000,0.000000000,0.00000000000,0.00000000000,0.00000000000,0.00000000000,0.00000000000,0.00000000000,4402957.8071,666835.8982,4550862.1942,0.0000,0.0000,0.0000,0.000,0.000,0.000,0.79960514351,0.15030950051,0.0000,2.093
229000,4402957.8071,666835.8982,4550862.1942,0.0000,0.0000,0.0000,0.000,0.000,0.000,0.000,0.000,0.000,0.79960514351,0.15030950051,0.0000,0.000000000,0.000000000,0.000000000,0.00000000000,0.00000000000,0.00000000000,0.00000000000,0.00000000000,0.00000000000,4402957.8071,666835.8982,4550862.1942,0.0000,0.0000,0.0000,0.000,0.000,0.000,0.79960514351,0.15030950051,0.0000,2.093
230000,4402957.8071,666835.8982,4550862.1942,0.0000,0.0000,0.0000,0.000,0.000,0.000,0.000,0.000,0.000,0.79960514351,0.15030950051,0.0000,0.000000000,0.000000000,0.000000000,0.00000000000,0.00000000000,0.00000000000,0.00000000000,0.00000000000,0.00000000000,4402957.8071,666835.8982,4550862.1942,0.0000,0.0000,0.0000,0.000,0.000,0.000,0.79960514351,0.15030950051,0.0000,2.093
231000,4402957.8071,666835.8982,4550862.1942,0.0000,0.0000,0.0000,0.000,0.000,0.000,0.000,0.000,0.000,0.79960514351,0.15030950051,0.0000,0.000000000,0.000000000,0.000000000,0.00000000000,0.00000000000,0.00000000000,0.00000000000,0.00000000000,0.00000000000,4402957.8071,666835.8982,4550862.1942,0.0000,0.0000,0.0000,0.000,0.000,0.000,0.79960514351,0.15030950051,0.0000,2.093
232000,4402957.8071,666835.8982,4550862.1942,0.0000,0.0000,0.0000,0.000,0.000,0.000,0.000,0.000,0.000,0.79960514351,0.15030950051,0.0000,0.000000000,0.000000000,0.000000000,0.00000000000,0.00000000000,0.00000000000,0.00000000000,0.00000000000,0.00000000000,4402957.8071,666835.8982,4550862.1942,0.0000,0.0000,0.0000,0.000,0.000,0.000,0.79960514351,0.15030950051,0.0000,2.093
233000,4402957.8071,666835.8982,4550862.1942,0.0000,0.0000,0.0000,0.000,0.000,0.000,0.000,0.000,0.000,0.79960514351,0.15030950051,0.0000,0.000000000,0.000000000,0.000000000,0.00000000000,0.00000000000,0.00000000000,0.00000000000,0.00000000000,0.00000000000,4402957.8071,666835.8982,4550862.1942,0.0000,0.0000,0.0000,0.000,0.000,0.000,0.79960514351,0.15030950051,0.0000,2.093
234000,4402957.8071,666835.8982,4550862.1942,0.0000,0.0000,0.0000,0.000,0.000,0.000,0.000,0.000,0.000,0.79960514351,0.15030950051,0.0000,0.000000000,0.000000000,0.000000000,0.00000000000,0.00000000000,0.00000000000,0.00000000000,0.00000000000,0.00000000000,4402957.8071,666835.8982,4550862.1942,0.0000,0.0000,0.0000,0.000,0.000,0.000,0.79960514351,0.15030950051,0.0000,2.095
235000,4402957.8071,666835.8982,4550862.1942,0.0000,0.0000,0.0000,0.000,0.000,0.000,0.000,0.000,0.000,0.79960514351,0.15030950051,0.0000,0.000000000,0.000000000,0.000000000,0.00000000000,0.00000000000,0.00000000000,0.00000000000,0.00000000000,0.00000000000,4402957.8071,666835.8982,4550862.1942,0.0000,0.0000,0.0000,0.000,0.000,0.000,0.79960514351,0.15030950051,0.0000,2.095
236000,4402957.8071,666835.8982,4550862.1942,0.0000,0.0000,0.0000,0.000,0.000,0.000,0.000,0.000,0.000,0.79960514351,0.15030950051,0.0000,0.000000000,0.000000000,0.000000000,0.00000000000,0.00000000000,0.00000000000,0.00000000000,0.00000000000,0.00000000000,4402957.8071,666835.8982,4550862.1942,0.0000,0.0000,0.0000,0.000,0.000,0.000,0.79960514351,0.15030950051,0.0000,2.095
237000,4402957.8071,666835.8982,4550862.1942,0.0000,0.0000,0.0000,0.000,0.000,0.000,0.000,0.000,0.000,0.79960514351,0.15030950051,0.0000,0.000000000,0.000000000,0.000000000,0.00000000000,0.00000000000,0.00000000000,0.00000000000,0.00000000000,0.00000000000,4402957.8071,666835.8982,4550862.1942,0.0000,0.0000,0.0000,0.000,0.000,0.000,0.79960514351,0.15030950051,0.0000,2.095
238000,4402957.8071,666835.8982,4550862.1942,0.0000,0.0000,0.0000,0.000,0.000,0.000,0.000,0.000,0.000,0.79960514351,0.15030950051,0.0000,0.000000000,0.000000000,0.000000000,0.00000000000,0.00000000000,0.00000000000,0.00000000000,0.00000000000,0.00000000000,4402957.8071,666835.8982,4550862.1942,0.0000,0.0000,0.0000,0.000,0.000,0.000,0.79960514351,0.15030950051,0.0000,2.095
239000,4402957.8071,666835.8982,4550862.1942,0.0000,0.0000,0.0000,0.000,0.000,0.000,0.000,0.000,0.000,0.79960514351,0.15030950051,0.0000,0.000000000,0.000000000,0.000000000,0.00000000000,0.00000000000,0.00000000000,0.00000000000,0.00000000000,0.00000000000,4402957.8071,666835.8982,4550862.1942,0.0000,0.0000,0.0000,0.000,0.000,0.000,0.79960514351,0.15030950051,0.0000,2.095
240000,4402957.8071,666835.8982,4550862.1942,0.0000,0.0000,0.0000,0.000,0.000,0.000,0.000,0.000,0.000,0.79960514351,0.15030950051,0.0000,0.000000000,0.000000000,0.000000000,0.00000000000,0.00000000000,0.00000000000,0.00000000000,0.00000000000,0.00000000000,4402957.8071,666835.8982,4550862.1942,0.0000,0.0000,0.0000,0.000,0.000,0.000,0.79960514351,0.15030950051,0.0000,2.097
241000,4402957.8071,666835.8982,4550862.1942,0.0000,0.0000,0.0000,0.000,0.000,0.000,0.000,0.000,0.000,0.79960514351,0.15030950051,0.0000,0.000000000,0.000000000,0.000000000,0.00000000000,0.00000000000,0.00000000000,0.00000000000,0.00000000000,0.00000000000,4402957.8071,666835.8982,4550862.1942,0.0000,0.0000,0.0000,0.000,0.000,0.000,0.79960514351,0.15030950051,0.0000,2.097
242000,4402957.8071,666835.8982,4550862.1942,0.0000,0.0000,0.0000,0.000,0.000,0.000,0.000,0.000,0.000,0.79960514351,0.15030950051,0.0000,0.000000000,0.000000000,0.000000000,0.00000000000,0.00000000000,0.00000000000,0.00000000000,0.00000000000,0.00000000000,4402957.8071,666835.8982,4550862.1942,0.0000,0.0000,0.0000,0.000,0.000,0.000,0.79960514351,0.15030950051,0.0000,2.097
243000,4402957.8071,666835.8982,4550862.1942,0.0000,0.0000,0.0000,0.000,0.000,0.000,0.000,0.000,0.000,0.79960514351,0.15030950051,0.0000,0.000000000,0.000000000,0.000000000,0.00000000000,0.00000000000,0.00000000000,0.00000000000,0.00000000000,0.00000000000,4402957.8071,666835.8982,4550862.1942,0.0000,0.0000,0.0000,0.000,0.000,0.000,0.79960514351,0.15030950051,0.0000,2.097
244000,4402957.8071,666835.8982,4550862.1942,0.0000,0.0000,0.0000,0.000,0.000,0.000,0.000,0.000,0.000,0.79960514351,0.15030950051,0.0000,0.000000000,0.000000000,0.000000000,0.00000000000,0.00000000000,0.00000000000,0.00000000000,0.00000000000,0.00000000000,4402957.8071,666835.8982,4550862.1942,0.0000,0.0000,0.0000,0.000,0.000,0.000,0.79960514351,0.15030950051,0.0000,2.097
245000,4402957.8071,666835.8982,4550862.1942,0.0000,0.0000,0.0000,0.000,0.000,0.000,0.000,0.000,0.000,0.79960514351,0.15030950051,0.0000,0.000000000,0.000000000,0.000000000,0.00000000000,0.00000000000,0.00000000000,0.00000000000,0.00000000000,0.00000000000,4402957.8071,666835.8982,4550862.1942,0.0000,0.0000,0.0000,0.000,0.000,0.000,0.79960514351,0.15030950051,0.0000,2.097
246000,4402957.8071,666835.8982,4550862.1942,0.0000,0.0000,0.0000,0.000,0.000,0.000,0.000,0.000,0.000,0.79960514351,0.15030950051,0.0000,0.000000000,0.000000000,0.000000000,0.00000000000,0.00000000000,0.00000000000,0.00000000000,0.00000000000,0.00000000000,4402957.8071,666835.8982,4550862.1942,0.0000,0.0000,0.0000,0.000,0.000,0.000,0.79960514351,0.15030950051,0.0000,2.099
247000,4402957.8071,666835.8982,4550862.1942,0.0000,0.0000,0.0000,0.000,0.000,0.000,0.000,0.000,0.000,0.79960514351,0.15030950051,0.0000,0.000000000,0.000000000,0.000000000,0.00000000000,0.00000000000,0.00000000000,0.00000000000,0.00000000000,0.00000000000,4402957.8071,666835.8982,4550862.1942,0.0000,0.0000,0.0000,0.000,0.000,0.000,0.79960514351,0.15030950051,0.0000,2.099
248000,4402957.8071,666835.8982,4550862.1942,0.0000,0.0000,0.0000,0.000,0.000,0.000,0.000,0.000,0.000,0.79960514351,0.15030950051,0.0000,0.000000000,0.000000000,0.000000000,0.00000000000,0.00000000000,0.00000000000,0.00000000000,0.00000000000,0.00000000000,4402957.8071,666835.8982,4550862.1942,0.0000,0.0000,0.0000,0.000,0.000,0.000,0.79960514351,0.15030950051,0.0000,2.099
249000,4402957.8071,666835.8982,4550862.1942,0.0000,0.0000,0.0000,0.000,0.000,0.000,0.000,0.000,0.000,0.79960514351,0.15030950051,0.0000,0.000000000,0.000000000,0.000000000,0.00000000000,0.00000000000,0.00000000000,0.00000000000,0.00000000000,0.00000000000,4402957.8071,666835.8982,4550862.1942,0.0000,0.0000,0.0000,0.000,0.000,0.000,0.79960514351,0.15030950051,0.0000,2.099
250000,4402957.8071,666835.8982,4550862.1942,0.0000,0.0000,0.0000,0.000,0.000,0.000,0.000,0.000,0.000,0.79960514351,0.15030950051,0.0000,0.000000000,0.000000000,0.000000000,0.00000000000,0.00000000000,0.00000000000,0.00000000000,0.00000000000,0.00000000000,4402957.8071,666835.8982,4550862.1942,0.0000,0.0000,0.0000,0.000,0.000,0.000,0.79960514351,0.15030950051,0.0000,2.099
251000,4402957.8071,666835.8982,4550862.1942,0.0000,0.0000,0.0000,0.000,0.000,0.000,0.000,0.000,0.000,0.79960514351,0.15030950051,0.0000,0.000000000,0.000000000,0.000000000,0.00000000000,0.00000000000,0.00000000000,0.00000000000,0.00000000000,0.00000000000,4402957.8071,666835.8982,4550862.1942,0.0000,0.0000,0.0000,0.000,0.000,0.000,0.79960514351,0.15030950051,0.0000,2.099
252000,4402957.8071,666835.8982,4550862.1942,0.0000,0.0000,0.0000,0.000,0.000,0.000,0.000,0.000,0.000,0.79960514351,0.15030950051,0.0000,0.000000000,0.000000000,0.000000000,0.00000000000,0.00000000000,0.00000000000,0.00000000000,0.00000000000,0.00000000000,4402957.8071,666835.8982,4550862.1942,0.0000,0.0000,0.0000,0.000,0.000,0.000,0.79960514351,0.15030950051,0.0000,2.102
253000,4402957.8071,666835.8982,4550862.1942,0.0000,0.0000,0.0000,0.000,0.000,0.000,0.000,0.000,0.000,0.79960514351,0.15030950051,0.0000,0.000000000,0.000000000,0.000000000,0.00000000000,0.00000000000,0.00000000000,0.00000000000,0.00000000000,0.00000000000,4402957.8071,666835.8982,4550862.1942,0.0000,0.0000,0.0000,0.000,0.000,0.000,0.79960514351,0.15030950051,0.0000,2.102
254000,4402957.8071,666835.8982,4550862.1942,0.0000,0.0000,0.0000,0.000,0.000,0.000,0.000,0.000,0.000,0.79960514351,0.15030950051,0.0000,0.000000000,0.000000000,0.000000000,0.00000000000,0.00000000000,0.00000000000,0.00000000000,0.00000000000,0.00000000000,4402957.8071,666835.8982,4550862.1942,0.0000,0.0000,0.0000,0.000,0.000,0.000,0.79960514351,0.15030950051,0.0000,2.102
255000,4402957.8071,666835.8982,4550862.1942,0.0000,0.0000,0.0000,0.000,0.000,0.000,0.000,0.000,0.000,0.79960514351,0.15030950051,0.0000,0.000000000,0.000000000,0.000000000,0.00000000000,0.00000000000,0.00000000000,0.00000000000,0.00000000000,0.00000000000,4402957.8071,666835.8982,4550862.1942,0.0000,0.0000,0.0000,0.000,0.000,0.000,0.79960514351,0.15030950051,0.0000,2.102
256000,4402957.8071,666835.8982,4550862.1942,0.0000,0.0000,0.0000,0.000,0.000,0.000,0.000,0.000,0.000,0.79960514351,0.15030950051,0.0000,0.000000000,0.000000000,0.000000000,0.00000000000,0.00000000000,0.00000000000,0.00000000000,0.00000000000,0.00000000000,4402957.8071,666835.8982,4550862.1942,0.0000,0.0000,0.0000,0.000,0.000,0.000,0.79960514351,0.15030950051,0.0000,2.102
257000,4402957.8071,666835.8982,4550862.1942,0.0000,0.0000,0.0000,0.000,0.000,0.000,0.000,0.000,0.000,0.79960514351,0.15030950051,0.0000,0.000000000,0.000000000,0.000000000,0.00000000000,0.00000000000,0.00000000000,0.00000000000,0.00000000000,0.00000000000,4402957.8071,666835.8982,4550862.1942,0.0000,0.0000,0.0000,0.000,0.000,0.000,0.79960514351,0.15030950051,0.0000,2.102
258000,4402957.8071,666835.8982,4550862.1942,0.0000,0.0000,0.0000,0.000,0.000,0.000,0.000,0.000,0.000,0.79960514351,0.15030950051,0.0000,0.000000000,0.000000000,0.000000000,0.00000000000,0.00000000000,0.00000000000,0.00000000000,0.00000000000,0.00000000000,4402957.8071,666835.8982,4550862.1942,0.0000,0.0000,0.0000,0.000,0.000,0.000,0.79960514351,0.15030950051,0.0000,2.106
259000,4402957.8071,666835.8982,4550862.1942,0.0000,0.0000,0.0000,0.000,0.000,0.000,0.000,0.000,0.000,0.79960514351,0.15030950051,0.0000,0.000000000,0.000000000,0.000000000,0.00000000000,0.00000000000,0.00000000000,0.00000000000,0.00000000000,0.00000000000,4402957.8071,666835.8982,4550862.1942,0.0000,0.0000,0.0000,0.000,0.000,0.000,0.79960514351,0.15030950051,0.0000,2.106
260000,4402957.8071,666835.8982,4550862.1942,0.0000,0.0000,0.0000,0.000,0.000,0.000,0.000,0.000,0.000,0.79960514351,0.15030950051,0.0000,0.000000000,0.000000000,0.000000000,0.00000000000,0.00000000000,0.00000000000,0.00000000000,0.00000000000,0.00000000000,4402957.8071,666835.8982,4550862.1942,0.0000,0.0000,0.0000,0.000,0.000,0.000,0.79960514351,0.15030950051,0.0000,2.106
261000,4402957.8071,666835.8982,4550862.1942,0.0000,0.0000,0.0000,0.000,0.000,0.000,0.000,0.000,0.000,0.79960514351,0.15030950051,0.0000,0.000000000,0.000000000,0.000000000,0.00000000000,0.00000000000,0.00000000000,0.00000000000,0.00000000000,0.00000000000,4402957.8071,666835.8982,4550862.1942,0.0000,0.0000,0.0000,0.000,0.000,0.000,0.79960514351,0.15030950051,0.0000,2.106
262000,4402957.8071,666835.8982,4550862.1942,0.0000,0.0000,0.0000,0.000,0.000,0.000,0.000,0.000,0.000,0.79960514351,0.15030950051,0.0000,0.000000000,0.000000000,0.000000000,0.00000000000,0.00000000000,0.00000000000,0.00000000000,0.00000000000,0.00000000000,4402957.8071,666835.8982,4550862.1942,0.0000,0.0000,0.0000,0.000,0.000,0.000,0.79960514351,0.15030950051,0.0000,2.106
263000,4402957.8071,666835.8982,4550862.1942,0.0000,0.0000,0.0000,0.000,0.000,0.000,0.000,0.000,0.000,0.79960514351,0.15030950051,0.0000,0.000000000,0.000000000,0.000000000,0.00000000000,0.00000000000,0.00000000000,0.00000000000,0.00000000000,0.00000000000,4402957.8071,666835.8982,4550862.1942,0.0000,0.0000,0.0000,0.000,0.000,0.000,0.79960514351,0.15030950051,0.0000,2.106
264000,4402957.8071,666835.8982,4550862.1942,0.0000,0.0000,0.0000,0.000,0.000,0.000,0.000,0.000,0.000,0.79960514351,0.15030950051,0.0000,0.000000000,0.000000000,0.000000000,0.00000000000,0.00000000000,0.00000000000,0.00000000000,0.00000000000,0.00000000000,4402957.8071,666835.8982,4550862.1942,0.0000,0.0000,0.0000,0.000,0.000,0.000,0.79960514351,0.15030950051,0.0000,2.106
265000,4402957.8071,666835.8982,4550862.1942,0.0000,0.0000,0.0000,0.000,0.000,0.000,0.000,0.000,0.000,0.79960514351,0.15030950051,0.0000,0.000000000,0.000000000,0.000000000,0.00000000000,0.00000000000,0.00000000000,0.00000000000,0.00000000000,0.00000000000,4402957.8071,666835.8982,4550862.1942,0.0000,0.0000,0.0000,0.000,0.000,0.000,0.79960514351,0.15030950051,0.0000,2.106
266000,4402957.8071,666835.8982,4550862.1942,0.0000,0.0000,0.0000,0.000,0.000,0.000,0.000,0.000,0.000,0.79960514351,0.15030950051,0.0000,0.000000000,0.000000000,0.000000000,0.00000000000,0.00000000000,0.00000000000,0.00000000000,0.00000000000,0.00000000000,4402957.8071,666835.8982,4550862.1942,0.0000,0.0000,0.0000,0.000,0.000,0.000,0.79960514351,0.15030950051,0.0000,2.106
267000,4402957.8071,666835.8982,4550862.1942,0.0000,0.0000,0.0000,0.000,0.000,0.000,0.000,0.000,0.000,0.79960514351,0.15030950051,0.0000,0.000000000,0.000000000,0.000000000,0.00000000000,0.00000000000,0.00000000000,0.00000000000,0.00000000000,0.00000000000,4402957.8071,666835.8982,4550862.1942,0.0000,0.0000,0.0000,0.000,0.000,0.000,0.79960514351,0.15030950051,0.0000,2.106
268000,4402957.8071,666835.8982,4550862.1942,0.0000,0.0000,0.0000,0.000,0.000,0.000,0.000,0.000,0.000,0.79960514351,0.15030950051,0.0000,0.000000000,0.000000000,0.000000000,0.00000000000,0.00000000000,0.00000000000,0.00000000000,0.00000000000,0.00000000000,4402957.8071,666835.8982,4550862.1942,0.0000,0.0000,0.0000,0.000,0.000,0.000,0.79960514351,0.15030950051,0.0000,2.106
269000,4402957.8071,666835.8982,4550862.1942,0.0000,0.0000,0.0000,0.000,0.000,0.000,0.000,0.000,0.000,0.79960514351,0.15030950051,0.0000,0.000000000,0.000000000,0.000000000,0.00000000000,0.00000000000,0.00000000000,0.00000000000,0.00000000000,0.00000000000,4402957.8071,666835.8982,4550862.1942,0.0000,0.0000,0.0000,0.000,0.000,0.000,0.79960514351,0.15030950051,0.0000,2.106
270000,4402957.8071,666835.8982,4550862.1942,0.0000,0.0000,0.0000,0.000,0.000,0.000,0.000,0.000,0.000,0.79960514351,0.15030950051,0.0000,0.000000000,0.000000000,0.000000000,0.00000000000,0.00000000000,0.00000000000,0.00000000000,0.00000000000,0.00000000000,4402957.8071,666835.8982,4550862.1942,0.0000,0.0000,0.0000,0.000,0.000,0.000,0.79960514351,0.15030950051,0.0000,2.099
271000,4402957.8071,666835.8982,4550862.1942,0.0000,0.0000,0.0000,0.000,0.000,0.000,0.000,0.000,0.000,0.79960514351,0.15030950051,0.0000,0.000000000,0.000000000,0.000000000,0.00000000000,0.00000000000,0.00000000000,0.00000000000,0.00000000000,0.00000000000,4402957.8071,666835.8982,4550862.1942,0.0000,0.0000,0.0000,0.000,0.000,0.000,0.79960514351,0.15030950051,0.0000,2.099
272000,4402957.8071,666835.8982,4550862.1942,0.0000,0.0000,0.0000,0.000,0.000,0.000,0.000,0.000,0.000,0.79960514351,0.15030950051,0.0000,0.000000000,0.000000000,0.000000000,0.00000000000,0.00000000000,0.00000000000,0.00000000000,0.00000000000,0.00000000000,4402957.8071,666835.8982,4550862.1942,0.0000,0.0000,0.0000,0.000,0.000,0.000,0.79960514351,0.15030950051,0.0000,2.099
273000,4402957.8071,666835.8982,4550862.1942,0.0000,0.0000,0.0000,0.000,0.000,0.000,0.000,0.000,0.000,0.79960514351,0.15030950051,0.0000,0.000000000,0.000000000,0.000000000,0.00000000000,0.00000000000,0.00000000000,0.00000000000,0.00000000000,0.00000000000,4402957.8071,666835.8982,4550862.1942,0.0000,0.0000,0.0000,0.000,0.000,0.000,0.79960514351,0.15030950051,0.0000,2.099
274000,4402957.8071,666835.8982,4550862.1942,0.0000,0.0000,0.0000,0.000,0.000,0.000,0.000,0.000,0.000,0.79960514351,0.15030950051,0.0000,0.000000000,0.000000000,0.000000000,0.00000000000,0.00000000000,0.00000000000,0.00000000000,0.00000000000,0.00000000000,4402957.8071,666835.8982,4550862.1942,0.0000,0.0000,0.0000,0.000,0.000,0.000,0.79960514351,0.15030950051,0.0000,2.099
275000,4402957.8071,666835.8982,4550862.1942,0.0000,0.0000,0.0000,0.000,0.000,0.000,0.000,0.000,0.000,0.79960514351,0.15030950051,0.0000,0.000000000,0.000000000,0.000000000,0.00000000000,0.00000000000,0.00000000000,0.00000000000,0.00000000000,0.00000000000,4402957.8071,666835.8982,4550862.1942,0.0000,0.0000,0.0000,0.000,0.000,0.000,0.79960514351,0.15030950051,0.0000,2.099
276000,4402957.8071,666835.8982,4550862.1942,0.0000,0.0000,0.0000,0.000,0.000,0.000,0.000,0.000,0.000,0.79960514351,0.15030950051,0.0000,0.000000000,0.000000000,0.000000000,0.00000000000,0.00000000000,0.00000000000,0.00000000000,0.00000000000,0.00000000000,4402957.8071,666835.8982,4550862.1942,0.0000,0.0000,0.0000,0.000,0.000,0.000,0.79960514351,0.15030950051,0.0000,2.093
277000,4402957.8071,666835.8982,4550862.1942,0.0000,0.0000,0.0000,0.000,0.000,0.000,0.000,0.000,0.000,0.79960514351,0.15030950051,0.0000,0.000000000,0.000000000,0.000000000,0.00000000000,0.00000000000,0.00000000000,0.00000000000,0.00000000000,0.00000000000,4402957.8071,666835.8982,4550862.1942,0.0000,0.0000,0.0000,0.000,0.000,0.000,0.79960514351,0.15030950051,0.0000,2.093
278000,4402957.8071,666835.8982,4550862.1942,0.0000,0.0000,0.0000,0.000,0.000,0.000,0.000,0.000,0.000,0.79960514351,0.15030950051,0.0000,0.000000000,0.000000000,0.000000000,0.00000000000,0.00000000000,0.00000000000,0.00000000000,0.00000000000,0.00000000000,4402957.8071,666835.8982,4550862.1942,0.0000,0.0000,0.0000,0.000,0.000,0.000,0.79960514351,0.15030950051,0.0000,2.093
279000,4402957.8071,666835.8982,4550862.1942,0.0000,0.0000,0.0000,0.000,0.000,0.000,0.000,0.000,0.000,0.79960514351,0.15030950051,0.0000,0.000000000,0.000000000,0.000000000,0.00000000000,0.00000000000,0.00000000000,0.00000000000,0.00000000000,0.00000000000,4402957.8071,666835.8982,4550862.1942,0.0000,0.0000,0.0000,0.000,0.000,0.000,0.79960514351,0.15030950051,0.0000,2.093
280000,4402957.8071,666835.8982,4550862.1942,0.0000,0.0000,0.0000,0.000,0.000,0.000,0.000,0.000,0.000,0.79960514351,0.15030950051,0.0000,0.000000000,0.000000000,0.000000000,0.00000000000,0.00000000000,0.00000000000,0.00000000000,0.00000000000,0.00000000000,4402957.8071,666835.8982,4550862.1942,0.0000,0.0000,0.0000,0.000,0.000,0.000,0.79960514351,0.15030950051,0.0000,2.093
281000,4402957.8071,666835.8982,4550862.1942,0.0000,0.0000,0.0000,0.000,0.000,0.000,0.000,0.000,0.000,0.79960514351,0.15030950051,0.0000,0.000000000,0.000000000,0.000000000,0.00000000000,0.00000000000,0.00000000000,0.00000000000,0.00000000000,0.00000000000,4402957.8071,666835.8982,4550862.1942,0.0000,0.0000,0.0000,0.000,0.000,0.000,0.79960514351,0.15030950051,0.0000,2.093
282000,4402957.8071,666835.8982,4550862.1942,0.0000,0.0000,0.0000,0.000,0.000,0.000,0.000,0.000,0.000,0.79960514351,0.15030950051,0.0000,0.000000000,0.000000000,0.000000000,0.00000000000,0.00000000000,0.00000000000,0.00000000000,0.00000000000,0.00000000000,4402957.8071,666835.8982,4550862.1942,0.0000,0.0000,0.0000,0.000,0.000,0.000,0.79960514351,0.15030950051,0.0000,2.811
283000,4402957.8071,666835.8982,4550862.1942,0.0000,0.0000,0.0000,0.000,0.000,0.000,0.000,0.000,0.000,0.79960514351,0.15030950051,0.0000,0.000000000,0.000000000,0.000000000,0.00000000000,0.00000000000,0.00000000000,0.00000000000,0.00000000000,0.00000000000,4402957.8071,666835.8982,4550862.1942,0.0000,0.0000,0.0000,0.000,0.000,0.000,0.79960514351,0.15030950051,0.0000,2.811
284000,4402957.8071,666835.8982,4550862.1942,0.0000,0.0000,0.0000,0.000,0.000,0.000,0.000,0.000,0.000,0.79960514351,0.15030950051,0.0000,0.000000000,0.000000000,0.000000000,0.00000000000,0.00000000000,0.00000000000,0.00000000000,0.00000000000,0.00000000000,4402957.8071,666835.8982,4550862.1942,0.0000,0.0000,0.0000,0.000,0.000,0.000,0.79960514351,0.15030950051,0.0000,2.811
285000,4402957.8071,666835.8982,4550862.1942,0.0000,0.0000,0.0000,0.000,0.000,0.000,0.000,0.000,0.000,0.79960514351,0.15030950051,0.0000,0.000000000,0.000000000,0.000000000,0.00000000000,0.00000000000,0.00000000000,0.00000000000,0.00000000000,0.00000000000,4402957.8071,666835.8982,4550862.1942,0.0000,0.0000,0.0000,0.000,0.000,0.000,0.79960514351,0.15030950051,0.0000,2.811
286000,4402957.8071,666835.8982,4550862.1942,0.0000,0.0000,0.0000,0.000,0.000,0.000,0.000,0.000,0.000,0.79960514351,0.15030950051,0.0000,0.000000000,0.000000000,0.000000000,0.00000000000,0.00000000000,0.00000000000,0.00000000000,0.00000000000,0.00000000000,4402957.8071,666835.8982,4550862.1942,0.0000,0.0000,0.0000,0.000,0.000,0.000,0.79960514351,0.15030950051,0.0000,2.811
287000,4402957.8071,666835.8982,4550862.1942,0.0000,0.0000,0.0000,0.000,0.000,0.000,0.000,0.000,0.000,0.79960514351,0.15030950051,0.0000,0.000000000,0.000000000,0.000000000,0.00000000000,0.00000000000,0.00000000000,0.00000000000,0.00000000000,0.00000000000,4402957.8071,666835.8982,4550862.1942,0.0000,0.0000,0.0000,0.000,0.000,0.000,0.79960514351,0.15030950051,0.0000,2.811
288000,4402957.8071,666835.8982,4550862.1942,0.0000,0.0000,0.0000,0.000,0.000,0.000,0.000,0.000,0.000,0.79960514351,0.15030950051,0.0000,0.000000000,0.000000000,0.000000000,0.00000000000,0.00000000000,0.00000000000,0.00000000000,0.00000000000,0.00000000000,4402957.8071,666835.8982,4550862.1942,0.0000,0.0000,0.0000,0.000,0.000,0.000,0.79960514351,0.15030950051,0.0000,2.812
289000,4402957.8071,666835.8982,4550862.1942,0.0000,0.0000,0.0000,0.000,0.000,0.000,0.000,0.000,0.000,0.79960514351,0.15030950051,0.0000,0.000000000,0.000000000,0.000000000,0.00000000000,0.00000000000,0.00000000000,0.00000000000,0.00000000000,0.00000000000,4402957.8071,666835.8982,4550862.1942,0.0000,0.0000,0.0000,0.000,0.000,0.000,0.79960514351,0.15030950051,0.0000,2.812
290000,4402957.8071,666835.8982,4550862.1942,0.0000,0.0000,0.0000,0.000,0.000,0.000,0.000,0.000,0.000,0.79960514351,0.15030950051,0.0000,0.000000000,0.000000000,0.000000000,0.00000000000,0.00000000000,0.00000000000,0.00000000000,0.00000000000,0.00000000000,4402957.8071,666835.8982,4550862.1942,0.0000,0.0000,0.0000,0.000,0.000,0.000,0.79960514351,0.15030950051,0.0000,2.812
291000,4402957.8071,666835.8982,4550862.1942,0.0000,0.0000,0.0000,0.000,0.000,0.000,0.000,0.000,0.000,0.79960514351,0.15030950051,0.0000,0.000000000,0.000000000,0.000000000,0.00000000000,0.00000000000,0.00000000000,0.00000000000,0.00000000000,0.00000000000,4402957.8071,666835.8982,4550862.1942,0.0000,0.0000,0.0000,0.000,0.000,0.000,0.79960514351,0.15030950051,0.0000,2.812
292000,4402957.8071,666835.8982,4550862.1942,0.0000,0.0000,0.0000,0.000,0.000,0.000,0.000,0.000,0.000,0.79960514351,0.15030950051,0.0000,0.000000000,0.000000000,0.000000000,0.00000000000,0.00000000000,0.00000000000,0.00000000000,0.00000000000,0.00000000000,4402957.8071,666835.8982,4550862.1942,0.0000,0.0000,0.0000,0.000,0.000,0.000,0.79960514351,0.15030950051,0.0000,2.812
293000,4402957.8071,666835.8982,4550862.1942,0.0000,0.0000,0.0000,0.000,0.000,0.000,0.000,0.000,0.000,0.79960514351,0.15030950051,0.0000,0.000000000,0.000000000,0.000000000,0.00000000000,0.00000000000,0.00000000000,0.00000000000,0.00000000000,0.00000000000,4402957.8071,666835.8982,4550862.1942,0.0000,0.0000,0.0000,0.000,0.000,0.000,0.79960514351,0.15030950051,0.0000,2.812
294000,4402957.8071,666835.8982,4550862.1942,0.0000,0.0000,0.0000,0.000,0.000,0.000,0.000,0.000,0.000,0.79960514351,0.15030950051,0.0000,0.000000000,0.000000000,0.000000000,0.00000000000,0.00000000000,0.00000000000,0.00000000000,0.00000000000,0.00000000000,4402957.8071,666835.8982,4550862.1942,0.0000,0.0000,0.0000,0.000,0.000,0.000,0.79960514351,0.15030950051,0.0000,2.812
295000,4402957.8071,666835.8982,4550862.1942,0.0000,0.0000,0.0000,0.000,0.000,0.000,0.000,0.000,0.000,0.79960514351,0.15030950051,0.0000,0.000000000,0.000000000,0.000000000,0.00000000000,0.00000000000,0.00000000000,0.00000000000,0.00000000000,0.00000000000,4402957.8071,666835.8982,4550862.1942,0.0000,0.0000,0.0000,0.000,0.000,0.000,0.79960514351,0.15030950051,0.0000,2.812
296000,4402957.8071,666835.8982,4550862.1942,0.0000,0.0000,0.0000,0.000,0.000,0.000,0.000,0.000,0.000,0.79960514351,0.15030950051,0.0000,0.000000000,0.000000000,0.000000000,0.00000000000,0.00000000000,0.00000000000,0.00000000000,0.00000000000,0.00000000000,4402957.8071,666835.8982,4550862.1942,0.0000,0.0000,0.0000,0.000,0.000,0.000,0.79960514351,0.15030950051,0.0000,2.812
297000,4402957.8071,666835.8982,4550862.1942,0.0000,0.0000,0.0000,0.000,0.000,0.000,0.000,0.000,0.000,0.79960514351,0.15030950051,0.0000,0.000000000,0.000000000,0.000000000,0.00000000000,0.00000000000,0.00000000000,0.00000000000,0.00000000000,0.00000000000,4402957.8071,666835.8982,4550862.1942,0.0000,0.0000,0.0000,0.000,0.000,0.000,0.79960514351,0.15030950051,0.0000,2.812
298000,4402957.8071,666835.8982,4550862.1942,0.0000,0.0000,0.0000,0.000,0.000,0.000,0.000,0.000,0.000,0.79960514351,0.15030950051,0.0000,0.000000000,0.000000000,0.000000000,0.00000000000,0.00000000000,0.00000000000,0.00000000000,0.00000000000,0.00000000000,4402957.8071,666835.8982,4550862.1942,0.0000,0.0000,0.0000,0.000,0.000,0.000,0.79960514351,0.15030950051,0.0000,2.812
299000,4402957.8071,666835.8982,4550862.1942,0.0000,0.0000,0.0000,0.000,0.000,0.000,0.000,0.000,0.000,0.79960514351,0.15030950051,0.0000,0.000000000,0.000000000,0.000000000,0.00000000000,0.00000000000,0.00000000000,0.00000000000,0.00000000000,0.00000000000,4402957.8071,666835.8982,4550862.1942,0.0000,0.0000,0.0000,0.000,0.000,0.000,0.79960514351,0.15030950051,0.0000,2.812
300000,4402957.8071,666835.8982,4550862.1942,0.0000,0.0000,0.0000,0.000,0.000,0.000,0.000,0.000,0.000,0.79960514351,0.15030950051,0.0000,0.000000000,0.000000000,0.000000000,0.00000000000,0.00000000000,0.00000000000,0.00000000000,0.00000000000,0.00000000000,4402957.8071,666835.8982,4550862.1942,0.0000,0.0000,0.0000,0.000,0.000,0.000,0.79960514351,0.15030950051,0.0000,2.813
301000,4402957.8071,666835.8982,4550862.1942,0.0000,0.0000,0.0000,0.000,0.000,0.000,0.000,0.000,0.000,0.79960514351,0.15030950051,0.0000,0.000000000,0.000000000,0.000000000,0.00000000000,0.00000000000,0.00000000000,0.00000000000,0.00000000000,0.00000000000,4402957.8071,666835.8982,4550862.1942,0.0000,0.0000,0.0000,0.000,0.000,0.000,0.79960514351,0.15030950051,0.0000,2.813
302000,4402957.8071,666835.8982,4550862.1942,0.0000,0.0000,0.0000,0.000,0.000,0.000,0.000,0.000,0.000,0.79960514351,0.15030950051,0.0000,0.000000000,0.000000000,0.000000000,0.00000000000,0.00000000000,0.00000000000,0.00000000000,0.00000000000,0.00000000000,4402957.8071,666835.8982,4550862.1942,0.0000,0.0000,0.0000,0.000,0.000,0.000,0.79960514351,0.15030950051,0.0000,2.813
303000,4402957.8071,666835.8982,4550862.1942,0.0000,0.0000,0.0000,0.000,0.000,0.000,0.000,0.000,0.000,0.79960514351,0.15030950051,0.0000,0.000000000,0.000000000,0.000000000,0.00000000000,0.00000000000,0.00000000000,0.00000000000,0.00000000000,0.00000000000,4402957.8071,666835.8982,4550862.1942,0.0000,0.0000,0.0000,0.000,0.000,0.000,0.79960514351,0.15030950051,0.0000,2.813
304000,4402957.8071,666835.8982,4550862.1942,0.0000,0.0000,0.0000,0.000,0.000,0.000,0.000,0.000,0.000,0.79960514351,0.15030950051,0.0000,0.000000000,0.000000000,0.000000000,0.00000000000,0.00000000000,0.00000000000,0.00000000000,0.00000000000,0.00000000000,4402957.8071,666835.8982,4550862.1942,0.0000,0.0000,0.0000,0.000,0.000,0.000,0.79960514351,0.15030950051,0.0000,2.813
305000,4402957.8071,666835.8982,4550862.1942,0.0000,0.0000,0.0000,0.000,0.000,0.000,0.000,0.000,0.000,0.79960514351,0.15030950051,0.0000,0.000000000,0.000000000,0.000000000,0.00000000000,0.00000000000,0.00000000000,0.00000000000,0.00000000000,0.00000000000,4402957.8071,666835.8982,4550862.1942,0.0000,0.0000,0.0000,0.000,0.000,0.000,0.79960514351,0.15030950051,0.0000,2.813
306000,4402957.8071,666835.8982,4550862.1942,0.0000,0.0000,0.0000,0.000,0.000,0.000,0.000,0.000,0.000,0.79960514351,0.15030950051,0.0000,0.000000000,0.000000000,0.000000000,0.00000000000,0.00000000000,0.00000000000,0.00000000000,0.00000000000,0.00000000000,4402957.8071,666835.8982,4550862.1942,0.0000,0.0000,0.0000,0.000,0.000,0.000,0.79960514351,0.15030950051,0.0000,2.814
307000,4402957.8071,666835.8982,4550862.1942,0.0000,0.0000,0.0000,0.000,0.000,0.000,0.000,0.000,0.000,0.79960514351,0.15030950051,0.0000,0.000000000,0.000000000,0.000000000,0.00000000000,0.00000000000,0.00000000000,0.00000000000,0.00000000000,0.00000000000,4402957.8071,666835.8982,4550862.1942,0.0000,0.0000,0.0000,0.000,0.000,0.000,0.79960514351,0.15030950051,0.0000,2.814
308000,4402957.8071,666835.8982,4550862.1942,0.0000,0.0000,0.0000,0.000,0.000,0.000,0.000,0.000,0.000,0.79960514351,0.15030950051,0.0000,0.000000000,0.000000000,0.000000000,0.00000000000,0.00000000000,0.00000000000,0.00000000000,0.00000000000,0.00000000000,4402957.8071,666835.8982,4550862.1942,0.0000,0.0000,0.0000,0.000,0.000,0.000,0.79960514351,0.15030950051,0.0000,2.814
309000,4402957.8071,666835.8982,4550862.1942,0.0000,0.0000,0.0000,0.000,0.000,0.000,0.000,0.000,0.000,0.79960514351,0.15030950051,0.0000,0.000000000,0.000000000,0.000000000,0.00000000000,0.00000000000,0.00000000000,0.00000000000,0.00000000000,0.00000000000,4402957.8071,666835.8982,4550862.1942,0.0000,0.0000,0.0000,0.000,0.000,0.000,0.79960514351,0.15030950051,0.0000,2.814
310000,4402957.8071,666835.8982,4550862.1942,0.0000,0.0000,0.0000,0.000,0.000,0.000,0.000,0.000,0.000,0.79960514351,0.15030950051,0.0000,0.000000000,0.000000000,0.000000000,0.00000000000,0.00000000000,0.00000000000,0.00000000000,0.00000000000,0.00000000000,4402957.8071,666835.8982,4550862.1942,0.0000,0.0000,0.0000,0.000,0.000,0.000,0.79960514351,0.15030950051,0.0000,2.814
311000,4402957.8071,666835.8982,4550862.1942,0.0000,0.0000,0.0000,0.000,0.000,0.000,0.000,0.000,0.000,0.79960514351,0.15030950051,0.0000,0.000000000,0.000000000,0.000000000,0.00000000000,0.00000000000,0.00000000000,0.00000000000,0.00000000000,0.00000000000,4402957.8071,666835.8982,4550862.1942,0.0000,0.0000,0.0000,0.000,0.000,0.000,0.79960514351,0.15030950051,0.0000,2.814
312000,4402957.8071,666835.8982,4550862.1942,0.0000,0.0000,0.0000,0.000,0.000,0.000,0.000,0.000,0.000,0.79960514351,0.15030950051,0.0000,0.000000000,0.000000000,0.000000000,0.00000000000,0.00000000000,0.00000000000,0.00000000000,0.00000000000,0.00000000000,4402957.8071,666835.8982,4550862.1942,0.0000,0.0000,0.0000,0.000,0.000,0.000,0.79960514351,0.15030950051,0.0000,2.815
313000,4402957.8071,666835.8982,4550862.1942,0.0000,0.0000,0.0000,0.000,0.000,0.000,0.000,0.000,0.000,0.79960514351,0.15030950051,0.0000,0.000000000,0.000000000,0.000000000,0.00000000000,0.00000000000,0.00000000000,0.00000000000,0.00000000000,0.00000000000,4402957.8071,666835.8982,4550862.1942,0.0000,0.0000,0.0000,0.000,0.000,0.000,0.79960514351,0.15030950051,0.0000,2.815
314000,4402957.8071,666835.8982,4550862.1942,0.0000,0.0000,0.0000,0.000,0.000,0.000,0.000,0.000,0.000,0.79960514351,0.15030950051,0.0000,0.000000000,0.000000000,0.000000000,0.00000000000,0.00000000000,0.00000000000,0.00000000000,0.00000000000,0.00000000000,4402957.8071,666835.8982,4550862.1942,0.0000,0.0000,0.0000,0.000,0.000,0.000,0.79960514351,0.15030950051,0.0000,2.815
315000,4402957.8071,666835.8982,4550862.1942,0.0000,0.0000,0.0000,0.000,0.000,0.000,0.000,0.000,0.000,0.79960514351,0.15030950051,0.0000,0.000000000,0.000000000,0.000000000,0.00000000000,0.00000000000,0.00000000000,0.00000000000,0.00000000000,0.00000000000,4402957.8071,666835.8982,4550862.1942,0.0000,0.0000,0.0000,0.000,0.000,0.000,0.79960514351,0.15030950051,0.0000,2.815
316000,4402957.8071,666835.8982,4550862.1942,0.0000,0.0000,0.0000,0.000,0.000,0.000,0.000,0.000,0.000,0.79960514351,0.15030950051,0.0000,0.000000000,0.000000000,0.000000000,0.00000000000,0.00000000000,0.00000000000,0.00000000000,0.00000000000,0.00000000000,4402957.8071,666835.8982,4550862.1942,0.0000,0.0000,0.0000,0.000,0.000,0.000,0.79960514351,0.15030950051,0.0000,2.815
317000,4402957.8071,666835.8982,4550862.1942,0.0000,0.0000,0.0000,0.000,0.000,0.000,0.000,0.000,0.000,0.79960514351,0.15030950051,0.0000,0.000000000,0.000000000,0.000000000,0.00000000000,0.00000000000,0.00000000000,0.00000000000,0.00000000000,0.00000000000,4402957.8071,666835.8982,4550862.1942,0.0000,0.0000,0.0000,0.000,0.000,0.000,0.79960514351,0.15030950051,0.0000,2.815
318000,4402957.8071,666835.8982,4550862.1942,0.0000,0.0000,0.0000,0.000,0.000,0.000,0.000,0.000,0.000,0.79960514351,0.15030950051,0.0000,0.000000000,0.000000000,0.000000000,0.00000000000,0.00000000000,0.00000000000,0.00000000000,0.00000000000,0.00000000000,4402957.8071,666835.8982,4550862.1942,0.0000,0.0000,0.0000,0.000,0.000,0.000,0.79960514351,0.15030950051,0.0000,2.816
